trial,block,stimId,category,response,accuracy,rt,condition,id,phase
0,0,B3,b,a,False,2349,2,15040,trainPhase
1,0,B0,b,b,True,1181,2,15040,trainPhase
2,0,A1,a,b,False,1069,2,15040,trainPhase
3,0,B2,b,b,True,1430,2,15040,trainPhase
4,0,A2,a,b,False,1262,2,15040,trainPhase
5,0,A3,a,a,True,8516,2,15040,trainPhase
6,0,A0,a,b,False,1164,2,15040,trainPhase
7,0,B1,b,b,True,957,2,15040,trainPhase
0,1,B1,b,b,True,1941,2,15040,trainPhase
1,1,A2,a,b,False,1181,2,15040,trainPhase
2,1,A1,a,a,True,901,2,15040,trainPhase
3,1,B3,b,a,False,804,2,15040,trainPhase
4,1,B0,b,b,True,941,2,15040,trainPhase
5,1,A3,a,b,False,1157,2,15040,trainPhase
6,1,A0,a,b,False,2469,2,15040,trainPhase
7,1,B2,b,a,False,1542,2,15040,trainPhase
0,2,B2,b,b,True,2569,2,15040,trainPhase
1,2,A2,a,a,True,1768,2,15040,trainPhase
2,2,A1,a,a,True,6167,2,15040,trainPhase
3,2,A3,a,b,False,1190,2,15040,trainPhase
4,2,A0,a,a,True,1238,2,15040,trainPhase
5,2,B3,b,a,False,1014,2,15040,trainPhase
6,2,B0,b,a,False,1188,2,15040,trainPhase
7,2,B1,b,b,True,1019,2,15040,trainPhase
0,3,B3,b,a,False,1229,2,15040,trainPhase
1,3,A3,a,b,False,4225,2,15040,trainPhase
2,3,B0,b,a,False,1350,2,15040,trainPhase
3,3,A1,a,a,True,11813,2,15040,trainPhase
4,3,A0,a,a,True,1061,2,15040,trainPhase
5,3,A2,a,b,False,1107,2,15040,trainPhase
6,3,B1,b,a,False,830,2,15040,trainPhase
7,3,B2,b,b,True,6878,2,15040,trainPhase
0,4,B3,b,a,False,6206,2,15040,trainPhase
1,4,B2,b,b,True,2542,2,15040,trainPhase
2,4,B0,b,b,True,1350,2,15040,trainPhase
3,4,A0,a,a,True,1902,2,15040,trainPhase
4,4,A1,a,a,True,1006,2,15040,trainPhase
5,4,A3,a,b,False,959,2,15040,trainPhase
6,4,A2,a,b,False,1670,2,15040,trainPhase
7,4,B1,b,a,False,1542,2,15040,trainPhase
0,5,A1,a,b,False,2462,2,15040,trainPhase
1,5,B1,b,a,False,3582,2,15040,trainPhase
2,5,A2,a,b,False,1615,2,15040,trainPhase
3,5,A0,a,a,True,1509,2,15040,trainPhase
4,5,A3,a,a,True,2438,2,15040,trainPhase
5,5,B2,b,b,True,1605,2,15040,trainPhase
6,5,B0,b,a,False,1597,2,15040,trainPhase
7,5,B3,b,a,False,1778,2,15040,trainPhase
0,6,B3,b,b,True,1174,2,15040,trainPhase
1,6,A0,a,a,True,1342,2,15040,trainPhase
2,6,B2,b,b,True,1311,2,15040,trainPhase
3,6,A1,a,a,True,1194,2,15040,trainPhase
4,6,A3,a,a,True,3691,2,15040,trainPhase
5,6,B0,b,a,False,1589,2,15040,trainPhase
6,6,B1,b,b,True,5566,2,15040,trainPhase
7,6,A2,a,a,True,1168,2,15040,trainPhase
0,7,B1,b,b,True,942,2,15040,trainPhase
1,7,A1,a,a,True,951,2,15040,trainPhase
2,7,A2,a,a,True,2007,2,15040,trainPhase
3,7,B0,b,b,True,868,2,15040,trainPhase
4,7,A0,a,a,True,2637,2,15040,trainPhase
5,7,A3,a,a,True,2190,2,15040,trainPhase
6,7,B2,b,b,True,1094,2,15040,trainPhase
7,7,B3,b,a,False,1285,2,15040,trainPhase
0,8,A0,a,a,True,3660,2,15040,trainPhase
1,8,B3,b,b,True,1718,2,15040,trainPhase
2,8,A1,a,a,True,998,2,15040,trainPhase
3,8,B2,b,a,False,3365,2,15040,trainPhase
4,8,B1,b,b,True,1221,2,15040,trainPhase
5,8,B0,b,a,False,6860,2,15040,trainPhase
6,8,A2,a,b,False,3150,2,15040,trainPhase
7,8,A3,a,a,True,5294,2,15040,trainPhase
0,9,A0,a,b,False,1877,2,15040,trainPhase
1,9,B1,b,b,True,1957,2,15040,trainPhase
2,9,B0,b,a,False,1848,2,15040,trainPhase
3,9,A1,a,a,True,971,2,15040,trainPhase
4,9,A2,a,a,True,1716,2,15040,trainPhase
5,9,A3,a,a,True,4550,2,15040,trainPhase
6,9,B2,b,b,True,2814,2,15040,trainPhase
7,9,B3,b,a,False,2756,2,15040,trainPhase
0,10,A1,a,a,True,1382,2,15040,trainPhase
1,10,A3,a,a,True,9469,2,15040,trainPhase
2,10,A2,a,b,False,3566,2,15040,trainPhase
3,10,B1,b,b,True,7902,2,15040,trainPhase
4,10,B2,b,a,False,4320,2,15040,trainPhase
5,10,B0,b,a,False,2550,2,15040,trainPhase
6,10,B3,b,b,True,1032,2,15040,trainPhase
7,10,A0,a,a,True,1185,2,15040,trainPhase
0,11,A0,a,a,True,1221,2,15040,trainPhase
1,11,B1,b,b,True,934,2,15040,trainPhase
2,11,B0,b,a,False,885,2,15040,trainPhase
3,11,B2,b,a,False,1078,2,15040,trainPhase
4,11,A3,a,b,False,1036,2,15040,trainPhase
5,11,B3,b,a,False,1006,2,15040,trainPhase
6,11,A1,a,a,True,638,2,15040,trainPhase
7,11,A2,a,a,True,1229,2,15040,trainPhase
0,12,B1,b,b,True,693,2,15040,trainPhase
1,12,B0,b,a,False,614,2,15040,trainPhase
2,12,A3,a,a,True,1446,2,15040,trainPhase
3,12,A1,a,a,True,974,2,15040,trainPhase
4,12,B3,b,b,True,1366,2,15040,trainPhase
5,12,A0,a,a,True,1781,2,15040,trainPhase
6,12,B2,b,a,False,3135,2,15040,trainPhase
7,12,A2,a,a,True,838,2,15040,trainPhase
0,13,A3,a,b,False,1022,2,15040,trainPhase
1,13,B3,b,a,False,1021,2,15040,trainPhase
2,13,B2,b,b,True,1734,2,15040,trainPhase
3,13,B1,b,a,False,4006,2,15040,trainPhase
4,13,A1,a,a,True,838,2,15040,trainPhase
5,13,A2,a,b,False,2509,2,15040,trainPhase
6,13,A0,a,a,True,1101,2,15040,trainPhase
7,13,B0,b,b,True,3925,2,15040,trainPhase
0,14,A0,a,b,False,1549,2,15040,trainPhase
1,14,A3,a,a,True,4965,2,15040,trainPhase
2,14,B3,b,b,True,1822,2,15040,trainPhase
3,14,B1,b,a,False,1309,2,15040,trainPhase
4,14,B0,b,a,False,1395,2,15040,trainPhase
5,14,A1,a,a,True,902,2,15040,trainPhase
6,14,B2,b,b,True,2217,2,15040,trainPhase
7,14,A2,a,a,True,854,2,15040,trainPhase
0,0,B0,b,b,True,5051,2,15045,trainPhase
1,0,B3,b,b,True,2451,2,15045,trainPhase
2,0,A3,a,b,False,1410,2,15045,trainPhase
3,0,A1,a,b,False,2774,2,15045,trainPhase
4,0,B1,b,b,True,1021,2,15045,trainPhase
5,0,B2,b,b,True,2086,2,15045,trainPhase
6,0,A0,a,b,False,829,2,15045,trainPhase
7,0,A2,a,b,False,1127,2,15045,trainPhase
0,1,A1,a,b,False,829,2,15045,trainPhase
1,1,B0,b,b,True,789,2,15045,trainPhase
2,1,B2,b,b,True,685,2,15045,trainPhase
3,1,B3,b,b,True,766,2,15045,trainPhase
4,1,A3,a,b,False,622,2,15045,trainPhase
5,1,B1,b,b,True,382,2,15045,trainPhase
6,1,A0,a,b,False,437,2,15045,trainPhase
7,1,A2,a,b,False,612,2,15045,trainPhase
0,2,A0,a,b,False,445,2,15045,trainPhase
1,2,B3,b,b,True,373,2,15045,trainPhase
2,2,B2,b,b,True,897,2,15045,trainPhase
3,2,B0,b,b,True,606,2,15045,trainPhase
4,2,B1,b,b,True,612,2,15045,trainPhase
5,2,A1,a,b,False,471,2,15045,trainPhase
6,2,A3,a,b,False,515,2,15045,trainPhase
7,2,A2,a,b,False,790,2,15045,trainPhase
0,3,A2,a,b,False,985,2,15045,trainPhase
1,3,A1,a,b,False,821,2,15045,trainPhase
2,3,B3,b,b,True,819,2,15045,trainPhase
3,3,A3,a,b,False,928,2,15045,trainPhase
4,3,B2,b,b,True,678,2,15045,trainPhase
5,3,A0,a,b,False,405,2,15045,trainPhase
6,3,B1,b,b,True,365,2,15045,trainPhase
7,3,B0,b,b,True,444,2,15045,trainPhase
0,4,B3,b,b,True,432,2,15045,trainPhase
1,4,A0,a,b,False,1102,2,15045,trainPhase
2,4,A2,a,b,False,1294,2,15045,trainPhase
3,4,A3,a,b,False,837,2,15045,trainPhase
4,4,B1,b,b,True,598,2,15045,trainPhase
5,4,B0,b,a,False,1902,2,15045,trainPhase
6,4,B2,b,a,False,691,2,15045,trainPhase
7,4,A1,a,a,True,493,2,15045,trainPhase
0,5,A2,a,a,True,1505,2,15045,trainPhase
1,5,B2,b,b,True,1461,2,15045,trainPhase
2,5,B3,b,b,True,1310,2,15045,trainPhase
3,5,B0,b,a,False,947,2,15045,trainPhase
4,5,B1,b,a,False,1229,2,15045,trainPhase
5,5,A0,a,a,True,1041,2,15045,trainPhase
6,5,A1,a,a,True,1014,2,15045,trainPhase
7,5,A3,a,b,False,734,2,15045,trainPhase
0,6,B0,b,b,True,1222,2,15045,trainPhase
1,6,B2,b,b,True,766,2,15045,trainPhase
2,6,A0,a,a,True,1090,2,15045,trainPhase
3,6,A2,a,b,False,1228,2,15045,trainPhase
4,6,B1,b,a,False,1927,2,15045,trainPhase
5,6,B3,b,a,False,1662,2,15045,trainPhase
6,6,A1,a,a,True,1398,2,15045,trainPhase
7,6,A3,a,b,False,526,2,15045,trainPhase
0,7,A3,a,b,False,413,2,15045,trainPhase
1,7,B1,b,a,False,605,2,15045,trainPhase
2,7,B0,b,a,False,613,2,15045,trainPhase
3,7,A2,a,a,True,532,2,15045,trainPhase
4,7,A1,a,a,True,1878,2,15045,trainPhase
5,7,B3,b,b,True,805,2,15045,trainPhase
6,7,B2,b,b,True,869,2,15045,trainPhase
7,7,A0,a,a,True,1142,2,15045,trainPhase
0,8,A0,a,a,True,791,2,15045,trainPhase
1,8,B3,b,b,True,1950,2,15045,trainPhase
2,8,A2,a,a,True,949,2,15045,trainPhase
3,8,B0,b,b,True,1664,2,15045,trainPhase
4,8,A1,a,b,False,4086,2,15045,trainPhase
5,8,B2,b,b,True,805,2,15045,trainPhase
6,8,A3,a,b,False,1877,2,15045,trainPhase
7,8,B1,b,a,False,1413,2,15045,trainPhase
0,9,A1,a,a,True,685,2,15045,trainPhase
1,9,B3,b,b,True,870,2,15045,trainPhase
2,9,A2,a,b,False,382,2,15045,trainPhase
3,9,B0,b,b,True,374,2,15045,trainPhase
4,9,B2,b,b,True,358,2,15045,trainPhase
5,9,A0,a,b,False,388,2,15045,trainPhase
6,9,B1,b,b,True,1334,2,15045,trainPhase
7,9,A3,a,b,False,677,2,15045,trainPhase
0,10,B3,b,b,True,532,2,15045,trainPhase
1,10,A2,a,b,False,388,2,15045,trainPhase
2,10,A1,a,b,False,398,2,15045,trainPhase
3,10,B2,b,b,True,381,2,15045,trainPhase
4,10,A0,a,b,False,734,2,15045,trainPhase
5,10,B1,b,b,True,373,2,15045,trainPhase
6,10,B0,b,b,True,412,2,15045,trainPhase
7,10,A3,a,b,False,406,2,15045,trainPhase
0,11,B3,b,b,True,316,2,15045,trainPhase
1,11,B0,b,b,True,366,2,15045,trainPhase
2,11,B2,b,b,True,367,2,15045,trainPhase
3,11,A3,a,b,False,326,2,15045,trainPhase
4,11,A2,a,b,False,364,2,15045,trainPhase
5,11,A1,a,b,False,318,2,15045,trainPhase
6,11,A0,a,b,False,326,2,15045,trainPhase
7,11,B1,b,b,True,733,2,15045,trainPhase
0,12,B0,b,b,True,1166,2,15045,trainPhase
1,12,A2,a,b,False,365,2,15045,trainPhase
2,12,A1,a,b,False,438,2,15045,trainPhase
3,12,B3,b,b,True,349,2,15045,trainPhase
4,12,B2,b,b,True,390,2,15045,trainPhase
5,12,A0,a,b,False,373,2,15045,trainPhase
6,12,A3,a,b,False,359,2,15045,trainPhase
7,12,B1,b,b,True,366,2,15045,trainPhase
0,13,B0,b,b,True,303,2,15045,trainPhase
1,13,A3,a,b,False,238,2,15045,trainPhase
2,13,B3,b,b,True,229,2,15045,trainPhase
3,13,A0,a,b,False,174,2,15045,trainPhase
4,13,A1,a,b,False,261,2,15045,trainPhase
5,13,B1,b,b,True,189,2,15045,trainPhase
6,13,A2,a,b,False,173,2,15045,trainPhase
7,13,B2,b,b,True,124,2,15045,trainPhase
0,14,A0,a,b,False,157,2,15045,trainPhase
1,14,A1,a,b,False,165,2,15045,trainPhase
2,14,A2,a,b,False,182,2,15045,trainPhase
3,14,B2,b,b,True,133,2,15045,trainPhase
4,14,B1,b,b,True,196,2,15045,trainPhase
5,14,B0,b,b,True,206,2,15045,trainPhase
6,14,B3,b,b,True,173,2,15045,trainPhase
7,14,A3,a,b,False,173,2,15045,trainPhase
0,0,A2,a,a,True,5203,2,15067,trainPhase
1,0,B1,b,a,False,1873,2,15067,trainPhase
2,0,A3,a,b,False,1694,2,15067,trainPhase
3,0,B0,b,a,False,1694,2,15067,trainPhase
4,0,A0,a,a,True,1110,2,15067,trainPhase
5,0,A1,a,b,False,1316,2,15067,trainPhase
6,0,B2,b,a,False,2766,2,15067,trainPhase
7,0,B3,b,a,False,1336,2,15067,trainPhase
0,1,A3,a,a,True,606,2,15067,trainPhase
1,1,B2,b,b,True,3367,2,15067,trainPhase
2,1,B0,b,a,False,2143,2,15067,trainPhase
3,1,B3,b,a,False,3266,2,15067,trainPhase
4,1,B1,b,a,False,979,2,15067,trainPhase
5,1,A1,a,b,False,2421,2,15067,trainPhase
6,1,A2,a,a,True,757,2,15067,trainPhase
7,1,A0,a,a,True,1071,2,15067,trainPhase
0,2,B1,b,b,True,1207,2,15067,trainPhase
1,2,A2,a,a,True,3485,2,15067,trainPhase
2,2,A1,a,b,False,1421,2,15067,trainPhase
3,2,B2,b,a,False,1015,2,15067,trainPhase
4,2,A3,a,b,False,910,2,15067,trainPhase
5,2,B0,b,a,False,965,2,15067,trainPhase
6,2,A0,a,a,True,1147,2,15067,trainPhase
7,2,B3,b,b,True,2743,2,15067,trainPhase
0,3,A0,a,a,True,1044,2,15067,trainPhase
1,3,B3,b,b,True,1175,2,15067,trainPhase
2,3,A1,a,a,True,1096,2,15067,trainPhase
3,3,B1,b,b,True,1279,2,15067,trainPhase
4,3,B0,b,a,False,1117,2,15067,trainPhase
5,3,B2,b,b,True,815,2,15067,trainPhase
6,3,A2,a,b,False,2892,2,15067,trainPhase
7,3,A3,a,a,True,932,2,15067,trainPhase
0,4,B2,b,a,False,1063,2,15067,trainPhase
1,4,A1,a,b,False,746,2,15067,trainPhase
2,4,B0,b,a,False,798,2,15067,trainPhase
3,4,A0,a,a,True,923,2,15067,trainPhase
4,4,A3,a,b,False,1678,2,15067,trainPhase
5,4,B1,b,a,False,3298,2,15067,trainPhase
6,4,B3,b,a,False,1198,2,15067,trainPhase
7,4,A2,a,a,True,943,2,15067,trainPhase
0,5,B2,b,b,True,1485,2,15067,trainPhase
1,5,A2,a,a,True,2236,2,15067,trainPhase
2,5,B1,b,a,False,1403,2,15067,trainPhase
3,5,A1,a,a,True,1070,2,15067,trainPhase
4,5,A0,a,a,True,838,2,15067,trainPhase
5,5,B0,b,b,True,1270,2,15067,trainPhase
6,5,B3,b,a,False,928,2,15067,trainPhase
7,5,A3,a,b,False,1287,2,15067,trainPhase
0,6,B2,b,a,False,928,2,15067,trainPhase
1,6,A3,a,a,True,894,2,15067,trainPhase
2,6,B3,b,a,False,1148,2,15067,trainPhase
3,6,A2,a,b,False,1238,2,15067,trainPhase
4,6,B0,b,a,False,781,2,15067,trainPhase
5,6,B1,b,a,False,2059,2,15067,trainPhase
6,6,A0,a,a,True,961,2,15067,trainPhase
7,6,A1,a,a,True,2173,2,15067,trainPhase
0,7,B2,b,b,True,1267,2,15067,trainPhase
1,7,A0,a,a,True,750,2,15067,trainPhase
2,7,A2,a,b,False,1359,2,15067,trainPhase
3,7,B0,b,a,False,957,2,15067,trainPhase
4,7,B3,b,a,False,1237,2,15067,trainPhase
5,7,A1,a,a,True,1015,2,15067,trainPhase
6,7,B1,b,b,True,943,2,15067,trainPhase
7,7,A3,a,b,False,1343,2,15067,trainPhase
0,8,B3,b,a,False,1422,2,15067,trainPhase
1,8,B0,b,b,True,1206,2,15067,trainPhase
2,8,A3,a,b,False,1046,2,15067,trainPhase
3,8,A1,a,a,True,998,2,15067,trainPhase
4,8,B2,b,a,False,1813,2,15067,trainPhase
5,8,B1,b,b,True,1207,2,15067,trainPhase
6,8,A2,a,b,False,2350,2,15067,trainPhase
7,8,A0,a,a,True,767,2,15067,trainPhase
0,9,A0,a,a,True,933,2,15067,trainPhase
1,9,A3,a,b,False,1942,2,15067,trainPhase
2,9,B0,b,a,False,1240,2,15067,trainPhase
3,9,B1,b,b,True,1460,2,15067,trainPhase
4,9,A2,a,a,True,1271,2,15067,trainPhase
5,9,B2,b,b,True,1024,2,15067,trainPhase
6,9,A1,a,a,True,1018,2,15067,trainPhase
7,9,B3,b,a,False,1040,2,15067,trainPhase
0,10,B1,b,b,True,1486,2,15067,trainPhase
1,10,A2,a,b,False,1317,2,15067,trainPhase
2,10,A3,a,a,True,880,2,15067,trainPhase
3,10,A0,a,a,True,1434,2,15067,trainPhase
4,10,A1,a,a,True,1845,2,15067,trainPhase
5,10,B3,b,b,True,1232,2,15067,trainPhase
6,10,B0,b,b,True,1303,2,15067,trainPhase
7,10,B2,b,a,False,1643,2,15067,trainPhase
0,11,B0,b,b,True,1012,2,15067,trainPhase
1,11,B1,b,b,True,1367,2,15067,trainPhase
2,11,A2,a,b,False,1290,2,15067,trainPhase
3,11,A0,a,a,True,781,2,15067,trainPhase
4,11,A1,a,a,True,2960,2,15067,trainPhase
5,11,A3,a,b,False,1893,2,15067,trainPhase
6,11,B2,b,a,False,1838,2,15067,trainPhase
7,11,B3,b,a,False,1325,2,15067,trainPhase
0,12,A3,a,a,True,1190,2,15067,trainPhase
1,12,B1,b,b,True,1119,2,15067,trainPhase
2,12,B3,b,b,True,976,2,15067,trainPhase
3,12,A0,a,a,True,943,2,15067,trainPhase
4,12,B2,b,b,True,1936,2,15067,trainPhase
5,12,A2,a,b,False,1638,2,15067,trainPhase
6,12,A1,a,a,True,797,2,15067,trainPhase
7,12,B0,b,b,True,1457,2,15067,trainPhase
0,13,A3,a,a,True,958,2,15067,trainPhase
1,13,B1,b,b,True,816,2,15067,trainPhase
2,13,A2,a,a,True,1157,2,15067,trainPhase
3,13,A0,a,a,True,1250,2,15067,trainPhase
4,13,B2,b,b,True,921,2,15067,trainPhase
5,13,A1,a,a,True,856,2,15067,trainPhase
6,13,B3,b,b,True,3144,2,15067,trainPhase
7,13,B0,b,a,False,1386,2,15067,trainPhase
0,14,A0,a,a,True,741,2,15067,trainPhase
1,14,B0,b,b,True,1543,2,15067,trainPhase
2,14,B2,b,b,True,1929,2,15067,trainPhase
3,14,A3,a,b,False,1334,2,15067,trainPhase
4,14,B3,b,a,False,917,2,15067,trainPhase
5,14,A1,a,a,True,1005,2,15067,trainPhase
6,14,A2,a,b,False,1013,2,15067,trainPhase
7,14,B1,b,b,True,1814,2,15067,trainPhase
0,0,B2,b,a,False,3252,2,15072,trainPhase
1,0,B3,b,b,True,1794,2,15072,trainPhase
2,0,B0,b,b,True,1994,2,15072,trainPhase
3,0,B1,b,b,True,1410,2,15072,trainPhase
4,0,A2,a,b,False,1000,2,15072,trainPhase
5,0,A3,a,a,True,1289,2,15072,trainPhase
6,0,A1,a,b,False,1453,2,15072,trainPhase
7,0,A0,a,b,False,1653,2,15072,trainPhase
0,1,A3,a,b,False,2785,2,15072,trainPhase
1,1,A1,a,a,True,2639,2,15072,trainPhase
2,1,A0,a,a,True,1098,2,15072,trainPhase
3,1,B0,b,a,False,3922,2,15072,trainPhase
4,1,A2,a,a,True,1352,2,15072,trainPhase
5,1,B2,b,a,False,1206,2,15072,trainPhase
6,1,B3,b,b,True,1259,2,15072,trainPhase
7,1,B1,b,a,False,1136,2,15072,trainPhase
0,2,B3,b,b,True,6797,2,15072,trainPhase
1,2,A0,a,a,True,1494,2,15072,trainPhase
2,2,A2,a,a,True,1103,2,15072,trainPhase
3,2,A1,a,b,False,1163,2,15072,trainPhase
4,2,B1,b,a,False,5123,2,15072,trainPhase
5,2,A3,a,a,True,1353,2,15072,trainPhase
6,2,B2,b,a,False,1432,2,15072,trainPhase
7,2,B0,b,a,False,1753,2,15072,trainPhase
0,3,B0,b,b,True,822,2,15072,trainPhase
1,3,A1,a,a,True,4026,2,15072,trainPhase
2,3,A2,a,a,True,2812,2,15072,trainPhase
3,3,A0,a,a,True,1093,2,15072,trainPhase
4,3,B2,b,b,True,971,2,15072,trainPhase
5,3,B3,b,b,True,1793,2,15072,trainPhase
6,3,A3,a,a,True,2644,2,15072,trainPhase
7,3,B1,b,b,True,7208,2,15072,trainPhase
0,4,A3,a,a,True,1264,2,15072,trainPhase
1,4,A1,a,a,True,4704,2,15072,trainPhase
2,4,B0,b,b,True,1090,2,15072,trainPhase
3,4,B3,b,a,False,1217,2,15072,trainPhase
4,4,B1,b,a,False,7162,2,15072,trainPhase
5,4,A0,a,a,True,1090,2,15072,trainPhase
6,4,A2,a,a,True,1498,2,15072,trainPhase
7,4,B2,b,b,True,983,2,15072,trainPhase
0,5,B3,b,b,True,1264,2,15072,trainPhase
1,5,A0,a,a,True,2295,2,15072,trainPhase
2,5,B0,b,b,True,1367,2,15072,trainPhase
3,5,A2,a,a,True,991,2,15072,trainPhase
4,5,B2,b,a,False,838,2,15072,trainPhase
5,5,A1,a,a,True,1422,2,15072,trainPhase
6,5,B1,b,a,False,1099,2,15072,trainPhase
7,5,A3,a,a,True,1962,2,15072,trainPhase
0,6,B2,b,b,True,1055,2,15072,trainPhase
1,6,A2,a,a,True,2167,2,15072,trainPhase
2,6,B1,b,a,False,1250,2,15072,trainPhase
3,6,A1,a,a,True,2157,2,15072,trainPhase
4,6,A0,a,a,True,1140,2,15072,trainPhase
5,6,B3,b,a,False,1460,2,15072,trainPhase
6,6,B0,b,b,True,3530,2,15072,trainPhase
7,6,A3,a,a,True,1292,2,15072,trainPhase
0,7,B3,b,a,False,1387,2,15072,trainPhase
1,7,A0,a,a,True,2989,2,15072,trainPhase
2,7,A2,a,a,True,940,2,15072,trainPhase
3,7,A1,a,a,True,9766,2,15072,trainPhase
4,7,B1,b,b,True,1371,2,15072,trainPhase
5,7,B2,b,a,False,1267,2,15072,trainPhase
6,7,A3,a,a,True,1087,2,15072,trainPhase
7,7,B0,b,b,True,1763,2,15072,trainPhase
0,8,B2,b,b,True,936,2,15072,trainPhase
1,8,A0,a,a,True,1120,2,15072,trainPhase
2,8,A2,a,a,True,928,2,15072,trainPhase
3,8,B1,b,b,True,1676,2,15072,trainPhase
4,8,A1,a,a,True,982,2,15072,trainPhase
5,8,A3,a,a,True,1358,2,15072,trainPhase
6,8,B0,b,b,True,3737,2,15072,trainPhase
7,8,B3,b,a,False,925,2,15072,trainPhase
0,9,B2,b,b,True,1778,2,15072,trainPhase
1,9,B0,b,a,False,838,2,15072,trainPhase
2,9,A3,a,a,True,2145,2,15072,trainPhase
3,9,A0,a,a,True,1192,2,15072,trainPhase
4,9,B3,b,a,False,2029,2,15072,trainPhase
5,9,A1,a,a,True,3974,2,15072,trainPhase
6,9,B1,b,a,False,934,2,15072,trainPhase
7,9,A2,a,a,True,1359,2,15072,trainPhase
0,10,A3,a,a,True,5337,2,15072,trainPhase
1,10,B2,b,b,True,1089,2,15072,trainPhase
2,10,A1,a,a,True,11750,2,15072,trainPhase
3,10,B1,b,b,True,1667,2,15072,trainPhase
4,10,A0,a,a,True,891,2,15072,trainPhase
5,10,B0,b,b,True,952,2,15072,trainPhase
6,10,B3,b,b,True,3990,2,15072,trainPhase
7,10,A2,a,a,True,2125,2,15072,trainPhase
0,11,B3,b,b,True,2190,2,15072,trainPhase
1,11,A2,a,a,True,4633,2,15072,trainPhase
2,11,A0,a,a,True,1069,2,15072,trainPhase
3,11,B0,b,b,True,968,2,15072,trainPhase
4,11,A3,a,a,True,1633,2,15072,trainPhase
5,11,A1,a,a,True,2635,2,15072,trainPhase
6,11,B1,b,a,False,1763,2,15072,trainPhase
7,11,B2,b,b,True,2554,2,15072,trainPhase
0,12,A3,a,a,True,1029,2,15072,trainPhase
1,12,B1,b,b,True,1270,2,15072,trainPhase
2,12,B2,b,a,False,2063,2,15072,trainPhase
3,12,A0,a,a,True,914,2,15072,trainPhase
4,12,A1,a,a,True,1495,2,15072,trainPhase
5,12,B3,b,b,True,1638,2,15072,trainPhase
6,12,B0,b,b,True,2024,2,15072,trainPhase
7,12,A2,a,a,True,1144,2,15072,trainPhase
0,13,A3,a,a,True,892,2,15072,trainPhase
1,13,A2,a,a,True,815,2,15072,trainPhase
2,13,B3,b,a,False,2651,2,15072,trainPhase
3,13,A0,a,a,True,2225,2,15072,trainPhase
4,13,A1,a,a,True,1087,2,15072,trainPhase
5,13,B2,b,b,True,1204,2,15072,trainPhase
6,13,B0,b,b,True,924,2,15072,trainPhase
7,13,B1,b,a,False,1091,2,15072,trainPhase
0,14,B2,b,b,True,1064,2,15072,trainPhase
1,14,A3,a,a,True,1014,2,15072,trainPhase
2,14,B0,b,b,True,1232,2,15072,trainPhase
3,14,A2,a,a,True,909,2,15072,trainPhase
4,14,B3,b,b,True,2557,2,15072,trainPhase
5,14,B1,b,b,True,2024,2,15072,trainPhase
6,14,A0,a,a,True,1409,2,15072,trainPhase
7,14,A1,a,b,False,1500,2,15072,trainPhase
0,0,A1,a,a,True,2674,2,15087,trainPhase
1,0,B1,b,b,True,2510,2,15087,trainPhase
2,0,B0,b,b,True,2176,2,15087,trainPhase
3,0,A2,a,b,False,1276,2,15087,trainPhase
4,0,B3,b,a,False,1570,2,15087,trainPhase
5,0,A0,a,b,False,1422,2,15087,trainPhase
6,0,B2,b,a,False,5080,2,15087,trainPhase
7,0,A3,a,b,False,1345,2,15087,trainPhase
0,1,B1,b,a,False,3229,2,15087,trainPhase
1,1,A0,a,b,False,989,2,15087,trainPhase
2,1,B0,b,a,False,2017,2,15087,trainPhase
3,1,A2,a,b,False,1231,2,15087,trainPhase
4,1,B2,b,a,False,1420,2,15087,trainPhase
5,1,A3,a,a,True,1450,2,15087,trainPhase
6,1,B3,b,a,False,1073,2,15087,trainPhase
7,1,A1,a,b,False,1679,2,15087,trainPhase
0,2,B2,b,b,True,1167,2,15087,trainPhase
1,2,A3,a,b,False,1195,2,15087,trainPhase
2,2,B1,b,b,True,2036,2,15087,trainPhase
3,2,A2,a,b,False,5648,2,15087,trainPhase
4,2,A0,a,b,False,1994,2,15087,trainPhase
5,2,B3,b,a,False,2692,2,15087,trainPhase
6,2,A1,a,a,True,2061,2,15087,trainPhase
7,2,B0,b,b,True,2043,2,15087,trainPhase
0,3,B1,b,a,False,2221,2,15087,trainPhase
1,3,A1,a,b,False,1542,2,15087,trainPhase
2,3,B3,b,a,False,1493,2,15087,trainPhase
3,3,B0,b,a,False,1932,2,15087,trainPhase
4,3,A3,a,a,True,1457,2,15087,trainPhase
5,3,B2,b,b,True,2478,2,15087,trainPhase
6,3,A2,a,a,True,2497,2,15087,trainPhase
7,3,A0,a,b,False,2180,2,15087,trainPhase
0,4,B3,b,a,False,3552,2,15087,trainPhase
1,4,B0,b,a,False,2486,2,15087,trainPhase
2,4,A2,a,a,True,1350,2,15087,trainPhase
3,4,B1,b,a,False,1297,2,15087,trainPhase
4,4,A0,a,b,False,1420,2,15087,trainPhase
5,4,A1,a,b,False,2188,2,15087,trainPhase
6,4,A3,a,a,True,1160,2,15087,trainPhase
7,4,B2,b,a,False,1835,2,15087,trainPhase
0,5,A1,a,a,True,1083,2,15087,trainPhase
1,5,A0,a,a,True,1050,2,15087,trainPhase
2,5,B1,b,a,False,2634,2,15087,trainPhase
3,5,A2,a,a,True,1325,2,15087,trainPhase
4,5,A3,a,a,True,1052,2,15087,trainPhase
5,5,B3,b,a,False,934,2,15087,trainPhase
6,5,B2,b,b,True,3214,2,15087,trainPhase
7,5,B0,b,b,True,2033,2,15087,trainPhase
0,6,A0,a,b,False,2608,2,15087,trainPhase
1,6,B2,b,a,False,1325,2,15087,trainPhase
2,6,A3,a,a,True,951,2,15087,trainPhase
3,6,A1,a,b,False,1694,2,15087,trainPhase
4,6,B1,b,a,False,1006,2,15087,trainPhase
5,6,B3,b,a,False,3920,2,15087,trainPhase
6,6,B0,b,b,True,1346,2,15087,trainPhase
7,6,A2,a,b,False,2229,2,15087,trainPhase
0,7,B1,b,b,True,1385,2,15087,trainPhase
1,7,A1,a,b,False,1405,2,15087,trainPhase
2,7,A2,a,a,True,1057,2,15087,trainPhase
3,7,B3,b,b,True,3119,2,15087,trainPhase
4,7,B0,b,b,True,2552,2,15087,trainPhase
5,7,A0,a,b,False,1560,2,15087,trainPhase
6,7,B2,b,b,True,2329,2,15087,trainPhase
7,7,A3,a,a,True,1358,2,15087,trainPhase
0,8,A0,a,b,False,3926,2,15087,trainPhase
1,8,B2,b,b,True,4232,2,15087,trainPhase
2,8,A2,a,a,True,1227,2,15087,trainPhase
3,8,A1,a,b,False,1824,2,15087,trainPhase
4,8,B3,b,a,False,1084,2,15087,trainPhase
5,8,B0,b,b,True,3789,2,15087,trainPhase
6,8,A3,a,a,True,1509,2,15087,trainPhase
7,8,B1,b,a,False,3467,2,15087,trainPhase
0,9,A3,a,a,True,1057,2,15087,trainPhase
1,9,A1,a,b,False,3061,2,15087,trainPhase
2,9,B2,b,b,True,1813,2,15087,trainPhase
3,9,B3,b,b,True,2108,2,15087,trainPhase
4,9,B0,b,b,True,1343,2,15087,trainPhase
5,9,B1,b,a,False,2947,2,15087,trainPhase
6,9,A2,a,a,True,961,2,15087,trainPhase
7,9,A0,a,b,False,1377,2,15087,trainPhase
0,10,A0,a,b,False,1065,2,15087,trainPhase
1,10,B0,b,b,True,1156,2,15087,trainPhase
2,10,A1,a,a,True,2167,2,15087,trainPhase
3,10,A2,a,a,True,1401,2,15087,trainPhase
4,10,B1,b,b,True,1373,2,15087,trainPhase
5,10,B3,b,a,False,1237,2,15087,trainPhase
6,10,A3,a,a,True,1288,2,15087,trainPhase
7,10,B2,b,a,False,2764,2,15087,trainPhase
0,11,B0,b,b,True,2021,2,15087,trainPhase
1,11,A2,a,a,True,2401,2,15087,trainPhase
2,11,A0,a,a,True,1814,2,15087,trainPhase
3,11,A1,a,a,True,1244,2,15087,trainPhase
4,11,A3,a,a,True,1012,2,15087,trainPhase
5,11,B2,b,a,False,1881,2,15087,trainPhase
6,11,B3,b,b,True,1133,2,15087,trainPhase
7,11,B1,b,a,False,3386,2,15087,trainPhase
0,12,A2,a,a,True,1061,2,15087,trainPhase
1,12,B1,b,b,True,2998,2,15087,trainPhase
2,12,A1,a,b,False,2614,2,15087,trainPhase
3,12,B3,b,a,False,1170,2,15087,trainPhase
4,12,B0,b,b,True,2533,2,15087,trainPhase
5,12,A0,a,b,False,2675,2,15087,trainPhase
6,12,A3,a,a,True,957,2,15087,trainPhase
7,12,B2,b,b,True,3262,2,15087,trainPhase
0,13,A1,a,a,True,1381,2,15087,trainPhase
1,13,B3,b,a,False,1094,2,15087,trainPhase
2,13,B1,b,b,True,1005,2,15087,trainPhase
3,13,A3,a,b,False,2853,2,15087,trainPhase
4,13,A2,a,a,True,966,2,15087,trainPhase
5,13,A0,a,b,False,1317,2,15087,trainPhase
6,13,B2,b,b,True,1046,2,15087,trainPhase
7,13,B0,b,b,True,2214,2,15087,trainPhase
0,14,B1,b,b,True,1408,2,15087,trainPhase
1,14,A3,a,a,True,1411,2,15087,trainPhase
2,14,B0,b,b,True,3375,2,15087,trainPhase
3,14,A2,a,a,True,1763,2,15087,trainPhase
4,14,B3,b,b,True,2626,2,15087,trainPhase
5,14,A1,a,b,False,1622,2,15087,trainPhase
6,14,A0,a,a,True,3861,2,15087,trainPhase
7,14,B2,b,b,True,6154,2,15087,trainPhase
0,0,A1,a,b,False,2654,2,15092,trainPhase
1,0,B3,b,a,False,1429,2,15092,trainPhase
2,0,B1,b,b,True,1963,2,15092,trainPhase
3,0,A0,a,b,False,1210,2,15092,trainPhase
4,0,A3,a,b,False,2822,2,15092,trainPhase
5,0,B0,b,b,True,1613,2,15092,trainPhase
6,0,A2,a,a,True,974,2,15092,trainPhase
7,0,B2,b,b,True,1189,2,15092,trainPhase
0,1,A3,a,a,True,609,2,15092,trainPhase
1,1,A0,a,b,False,662,2,15092,trainPhase
2,1,B2,b,a,False,703,2,15092,trainPhase
3,1,B0,b,b,True,582,2,15092,trainPhase
4,1,A1,a,b,False,3794,2,15092,trainPhase
5,1,B3,b,a,False,1144,2,15092,trainPhase
6,1,A2,a,a,True,2975,2,15092,trainPhase
7,1,B1,b,b,True,421,2,15092,trainPhase
0,2,A3,a,a,True,493,2,15092,trainPhase
1,2,B1,b,b,True,998,2,15092,trainPhase
2,2,B3,b,a,False,390,2,15092,trainPhase
3,2,B2,b,b,True,421,2,15092,trainPhase
4,2,B0,b,a,False,363,2,15092,trainPhase
5,2,A1,a,a,True,347,2,15092,trainPhase
6,2,A2,a,b,False,510,2,15092,trainPhase
7,2,A0,a,a,True,367,2,15092,trainPhase
0,3,A1,a,a,True,966,2,15092,trainPhase
1,3,B1,b,b,True,734,2,15092,trainPhase
2,3,A3,a,a,True,365,2,15092,trainPhase
3,3,B3,b,a,False,366,2,15092,trainPhase
4,3,A2,a,b,False,622,2,15092,trainPhase
5,3,B2,b,a,False,422,2,15092,trainPhase
6,3,A0,a,a,True,2157,2,15092,trainPhase
7,3,B0,b,b,True,982,2,15092,trainPhase
0,4,A2,a,b,False,925,2,15092,trainPhase
1,4,B2,b,a,False,709,2,15092,trainPhase
2,4,B3,b,b,True,1174,2,15092,trainPhase
3,4,B1,b,a,False,977,2,15092,trainPhase
4,4,A0,a,b,False,414,2,15092,trainPhase
5,4,A1,a,a,True,711,2,15092,trainPhase
6,4,A3,a,b,False,1407,2,15092,trainPhase
7,4,B0,b,a,False,598,2,15092,trainPhase
0,5,B2,b,b,True,342,2,15092,trainPhase
1,5,B0,b,a,False,422,2,15092,trainPhase
2,5,A1,a,b,False,358,2,15092,trainPhase
3,5,B3,b,a,False,350,2,15092,trainPhase
4,5,A3,a,b,False,573,2,15092,trainPhase
5,5,B1,b,a,False,421,2,15092,trainPhase
6,5,A0,a,a,True,453,2,15092,trainPhase
7,5,A2,a,a,True,485,2,15092,trainPhase
0,6,B0,b,b,True,822,2,15092,trainPhase
1,6,A3,a,a,True,718,2,15092,trainPhase
2,6,B2,b,a,False,735,2,15092,trainPhase
3,6,A0,a,b,False,566,2,15092,trainPhase
4,6,A1,a,a,True,406,2,15092,trainPhase
5,6,B1,b,a,False,382,2,15092,trainPhase
6,6,B3,b,b,True,485,2,15092,trainPhase
7,6,A2,a,a,True,725,2,15092,trainPhase
0,7,A0,a,a,True,1030,2,15092,trainPhase
1,7,A3,a,b,False,1046,2,15092,trainPhase
2,7,B1,b,a,False,742,2,15092,trainPhase
3,7,B2,b,a,False,806,2,15092,trainPhase
4,7,A1,a,b,False,656,2,15092,trainPhase
5,7,B3,b,a,False,842,2,15092,trainPhase
6,7,A2,a,b,False,1496,2,15092,trainPhase
7,7,B0,b,a,False,398,2,15092,trainPhase
0,8,A0,a,b,False,597,2,15092,trainPhase
1,8,B0,b,b,True,454,2,15092,trainPhase
2,8,A2,a,a,True,1159,2,15092,trainPhase
3,8,A3,a,a,True,718,2,15092,trainPhase
4,8,B1,b,b,True,773,2,15092,trainPhase
5,8,B3,b,b,True,1101,2,15092,trainPhase
6,8,B2,b,a,False,660,2,15092,trainPhase
7,8,A1,a,b,False,1853,2,15092,trainPhase
0,9,A1,a,a,True,1277,2,15092,trainPhase
1,9,A3,a,a,True,893,2,15092,trainPhase
2,9,A0,a,b,False,926,2,15092,trainPhase
3,9,A2,a,a,True,1081,2,15092,trainPhase
4,9,B1,b,a,False,661,2,15092,trainPhase
5,9,B2,b,b,True,565,2,15092,trainPhase
6,9,B0,b,b,True,430,2,15092,trainPhase
7,9,B3,b,b,True,445,2,15092,trainPhase
0,10,A2,a,b,False,469,2,15092,trainPhase
1,10,A1,a,a,True,389,2,15092,trainPhase
2,10,B1,b,a,False,365,2,15092,trainPhase
3,10,B0,b,b,True,454,2,15092,trainPhase
4,10,A3,a,b,False,1598,2,15092,trainPhase
5,10,B2,b,a,False,421,2,15092,trainPhase
6,10,B3,b,a,False,2532,2,15092,trainPhase
7,10,A0,a,b,False,718,2,15092,trainPhase
0,11,A0,a,a,True,1725,2,15092,trainPhase
1,11,A1,a,a,True,918,2,15092,trainPhase
2,11,A2,a,a,True,493,2,15092,trainPhase
3,11,B2,b,a,False,454,2,15092,trainPhase
4,11,B1,b,b,True,796,2,15092,trainPhase
5,11,B0,b,a,False,678,2,15092,trainPhase
6,11,A3,a,b,False,910,2,15092,trainPhase
7,11,B3,b,a,False,670,2,15092,trainPhase
0,12,B2,b,b,True,405,2,15092,trainPhase
1,12,A0,a,a,True,358,2,15092,trainPhase
2,12,A1,a,a,True,438,2,15092,trainPhase
3,12,B1,b,b,True,847,2,15092,trainPhase
4,12,B0,b,a,False,414,2,15092,trainPhase
5,12,A3,a,b,False,1265,2,15092,trainPhase
6,12,B3,b,a,False,509,2,15092,trainPhase
7,12,A2,a,b,False,382,2,15092,trainPhase
0,13,B0,b,a,False,661,2,15092,trainPhase
1,13,A1,a,b,False,1261,2,15092,trainPhase
2,13,A3,a,a,True,398,2,15092,trainPhase
3,13,B3,b,b,True,349,2,15092,trainPhase
4,13,B1,b,b,True,742,2,15092,trainPhase
5,13,A0,a,a,True,958,2,15092,trainPhase
6,13,A2,a,b,False,399,2,15092,trainPhase
7,13,B2,b,a,False,286,2,15092,trainPhase
0,14,A1,a,b,False,901,2,15092,trainPhase
1,14,A3,a,b,False,343,2,15092,trainPhase
2,14,A2,a,b,False,293,2,15092,trainPhase
3,14,A0,a,b,False,221,2,15092,trainPhase
4,14,B1,b,b,True,229,2,15092,trainPhase
5,14,B3,b,b,True,190,2,15092,trainPhase
6,14,B0,b,b,True,2406,2,15092,trainPhase
7,14,B2,b,a,False,358,2,15092,trainPhase
0,0,A1,a,a,True,2003,2,15097,trainPhase
1,0,B2,b,a,False,1315,2,15097,trainPhase
2,0,A0,a,b,False,1200,2,15097,trainPhase
3,0,B0,b,b,True,1392,2,15097,trainPhase
4,0,A2,a,a,True,1101,2,15097,trainPhase
5,0,B3,b,a,False,1465,2,15097,trainPhase
6,0,B1,b,b,True,2899,2,15097,trainPhase
7,0,A3,a,a,True,1979,2,15097,trainPhase
0,1,A1,a,b,False,1189,2,15097,trainPhase
1,1,A2,a,a,True,1219,2,15097,trainPhase
2,1,A0,a,b,False,1106,2,15097,trainPhase
3,1,B1,b,b,True,2219,2,15097,trainPhase
4,1,B2,b,a,False,2469,2,15097,trainPhase
5,1,B0,b,a,False,3010,2,15097,trainPhase
6,1,B3,b,a,False,1828,2,15097,trainPhase
7,1,A3,a,b,False,2275,2,15097,trainPhase
0,2,A0,a,b,False,2003,2,15097,trainPhase
1,2,A1,a,a,True,1476,2,15097,trainPhase
2,2,B3,b,a,False,2660,2,15097,trainPhase
3,2,A3,a,a,True,1282,2,15097,trainPhase
4,2,A2,a,b,False,1167,2,15097,trainPhase
5,2,B0,b,b,True,1006,2,15097,trainPhase
6,2,B2,b,a,False,5880,2,15097,trainPhase
7,2,B1,b,a,False,1012,2,15097,trainPhase
0,3,A0,a,a,True,1311,2,15097,trainPhase
1,3,A1,a,b,False,1468,2,15097,trainPhase
2,3,B1,b,b,True,1162,2,15097,trainPhase
3,3,B3,b,b,True,1215,2,15097,trainPhase
4,3,A2,a,b,False,4100,2,15097,trainPhase
5,3,B0,b,b,True,1008,2,15097,trainPhase
6,3,A3,a,a,True,1844,2,15097,trainPhase
7,3,B2,b,a,False,1722,2,15097,trainPhase
0,4,A2,a,b,False,1244,2,15097,trainPhase
1,4,B1,b,b,True,1034,2,15097,trainPhase
2,4,A3,a,a,True,1670,2,15097,trainPhase
3,4,B2,b,b,True,1705,2,15097,trainPhase
4,4,B0,b,b,True,3428,2,15097,trainPhase
5,4,A0,a,b,False,1722,2,15097,trainPhase
6,4,A1,a,a,True,1534,2,15097,trainPhase
7,4,B3,b,b,True,1486,2,15097,trainPhase
0,5,B2,b,b,True,1786,2,15097,trainPhase
1,5,A2,a,a,True,1223,2,15097,trainPhase
2,5,A0,a,a,True,1201,2,15097,trainPhase
3,5,B3,b,b,True,1816,2,15097,trainPhase
4,5,B1,b,a,False,2153,2,15097,trainPhase
5,5,A3,a,a,True,1912,2,15097,trainPhase
6,5,A1,a,b,False,1132,2,15097,trainPhase
7,5,B0,b,b,True,1411,2,15097,trainPhase
0,6,B3,b,a,False,978,2,15097,trainPhase
1,6,A3,a,a,True,1201,2,15097,trainPhase
2,6,A1,a,a,True,4496,2,15097,trainPhase
3,6,B0,b,a,False,2395,2,15097,trainPhase
4,6,B2,b,b,True,1440,2,15097,trainPhase
5,6,A0,a,a,True,1017,2,15097,trainPhase
6,6,B1,b,a,False,1438,2,15097,trainPhase
7,6,A2,a,a,True,4518,2,15097,trainPhase
0,7,A2,a,b,False,1567,2,15097,trainPhase
1,7,B0,b,b,True,974,2,15097,trainPhase
2,7,A3,a,a,True,887,2,15097,trainPhase
3,7,B2,b,a,False,1838,2,15097,trainPhase
4,7,A0,a,a,True,1025,2,15097,trainPhase
5,7,B1,b,b,True,952,2,15097,trainPhase
6,7,A1,a,b,False,988,2,15097,trainPhase
7,7,B3,b,b,True,825,2,15097,trainPhase
0,8,B2,b,a,False,1363,2,15097,trainPhase
1,8,A3,a,a,True,704,2,15097,trainPhase
2,8,B3,b,a,False,1154,2,15097,trainPhase
3,8,B1,b,a,False,2237,2,15097,trainPhase
4,8,A1,a,a,True,9061,2,15097,trainPhase
5,8,B0,b,a,False,1459,2,15097,trainPhase
6,8,A0,a,a,True,1101,2,15097,trainPhase
7,8,A2,a,a,True,2331,2,15097,trainPhase
0,9,B3,b,b,True,1264,2,15097,trainPhase
1,9,B0,b,b,True,1535,2,15097,trainPhase
2,9,B1,b,a,False,1409,2,15097,trainPhase
3,9,B2,b,a,False,999,2,15097,trainPhase
4,9,A0,a,a,True,848,2,15097,trainPhase
5,9,A3,a,b,False,1106,2,15097,trainPhase
6,9,A2,a,b,False,1142,2,15097,trainPhase
7,9,A1,a,a,True,945,2,15097,trainPhase
0,10,A2,a,b,False,5945,2,15097,trainPhase
1,10,B2,b,b,True,879,2,15097,trainPhase
2,10,B3,b,a,False,1266,2,15097,trainPhase
3,10,A3,a,a,True,826,2,15097,trainPhase
4,10,A1,a,a,True,1051,2,15097,trainPhase
5,10,A0,a,a,True,1036,2,15097,trainPhase
6,10,B1,b,a,False,784,2,15097,trainPhase
7,10,B0,b,b,True,2567,2,15097,trainPhase
0,11,A1,a,b,False,879,2,15097,trainPhase
1,11,A0,a,a,True,1127,2,15097,trainPhase
2,11,B0,b,b,True,1253,2,15097,trainPhase
3,11,A3,a,a,True,5486,2,15097,trainPhase
4,11,B3,b,a,False,862,2,15097,trainPhase
5,11,B2,b,b,True,2180,2,15097,trainPhase
6,11,B1,b,b,True,1508,2,15097,trainPhase
7,11,A2,a,a,True,4801,2,15097,trainPhase
0,12,A3,a,a,True,999,2,15097,trainPhase
1,12,A2,a,b,False,2456,2,15097,trainPhase
2,12,B2,b,a,False,1695,2,15097,trainPhase
3,12,B3,b,b,True,925,2,15097,trainPhase
4,12,B1,b,a,False,5139,2,15097,trainPhase
5,12,A1,a,a,True,1214,2,15097,trainPhase
6,12,A0,a,a,True,1357,2,15097,trainPhase
7,12,B0,b,b,True,1052,2,15097,trainPhase
0,13,A3,a,b,False,1197,2,15097,trainPhase
1,13,B2,b,a,False,1542,2,15097,trainPhase
2,13,B1,b,a,False,893,2,15097,trainPhase
3,13,B3,b,a,False,1544,2,15097,trainPhase
4,13,A0,a,a,True,1111,2,15097,trainPhase
5,13,A2,a,b,False,919,2,15097,trainPhase
6,13,A1,a,a,True,733,2,15097,trainPhase
7,13,B0,b,a,False,1226,2,15097,trainPhase
0,14,B1,b,a,False,1220,2,15097,trainPhase
1,14,A2,a,a,True,835,2,15097,trainPhase
2,14,A0,a,a,True,872,2,15097,trainPhase
3,14,B0,b,a,False,599,2,15097,trainPhase
4,14,B2,b,b,True,1793,2,15097,trainPhase
5,14,A1,a,a,True,1311,2,15097,trainPhase
6,14,B3,b,a,False,1246,2,15097,trainPhase
7,14,A3,a,b,False,1585,2,15097,trainPhase
0,0,A1,a,b,False,3082,2,15102,trainPhase
1,0,B1,b,b,True,2217,2,15102,trainPhase
2,0,B0,b,b,True,2284,2,15102,trainPhase
3,0,A0,a,b,False,1613,2,15102,trainPhase
4,0,B3,b,a,False,1604,2,15102,trainPhase
5,0,A2,a,a,True,1983,2,15102,trainPhase
6,0,B2,b,b,True,2633,2,15102,trainPhase
7,0,A3,a,a,True,1659,2,15102,trainPhase
0,1,B1,b,b,True,2143,2,15102,trainPhase
1,1,A3,a,a,True,1749,2,15102,trainPhase
2,1,B2,b,b,True,1444,2,15102,trainPhase
3,1,B0,b,b,True,1338,2,15102,trainPhase
4,1,A1,a,a,True,1362,2,15102,trainPhase
5,1,B3,b,a,False,1212,2,15102,trainPhase
6,1,A0,a,b,False,1848,2,15102,trainPhase
7,1,A2,a,a,True,1280,2,15102,trainPhase
0,2,B2,b,b,True,1569,2,15102,trainPhase
1,2,A1,a,a,True,1375,2,15102,trainPhase
2,2,A3,a,a,True,1071,2,15102,trainPhase
3,2,A0,a,a,True,1335,2,15102,trainPhase
4,2,B3,b,b,True,1325,2,15102,trainPhase
5,2,A2,a,a,True,1033,2,15102,trainPhase
6,2,B1,b,b,True,1394,2,15102,trainPhase
7,2,B0,b,b,True,1413,2,15102,trainPhase
0,3,B2,b,a,False,1413,2,15102,trainPhase
1,3,B0,b,b,True,1216,2,15102,trainPhase
2,3,A3,a,a,True,1426,2,15102,trainPhase
3,3,A0,a,a,True,1443,2,15102,trainPhase
4,3,A1,a,b,False,1528,2,15102,trainPhase
5,3,A2,a,a,True,1090,2,15102,trainPhase
6,3,B3,b,a,False,1129,2,15102,trainPhase
7,3,B1,b,a,False,2305,2,15102,trainPhase
0,4,B3,b,a,False,1075,2,15102,trainPhase
1,4,B2,b,b,True,2099,2,15102,trainPhase
2,4,A0,a,a,True,1091,2,15102,trainPhase
3,4,A1,a,a,True,1288,2,15102,trainPhase
4,4,A2,a,a,True,1030,2,15102,trainPhase
5,4,B0,b,b,True,1378,2,15102,trainPhase
6,4,B1,b,b,True,1390,2,15102,trainPhase
7,4,A3,a,a,True,1051,2,15102,trainPhase
0,5,A0,a,a,True,1224,2,15102,trainPhase
1,5,B0,b,b,True,1384,2,15102,trainPhase
2,5,A1,a,a,True,1105,2,15102,trainPhase
3,5,B3,b,a,False,1572,2,15102,trainPhase
4,5,B1,b,a,False,1728,2,15102,trainPhase
5,5,B2,b,a,False,925,2,15102,trainPhase
6,5,A3,a,a,True,1189,2,15102,trainPhase
7,5,A2,a,a,True,804,2,15102,trainPhase
0,6,B2,b,b,True,939,2,15102,trainPhase
1,6,A1,a,b,False,1478,2,15102,trainPhase
2,6,A2,a,a,True,856,2,15102,trainPhase
3,6,B3,b,b,True,1305,2,15102,trainPhase
4,6,A0,a,a,True,1422,2,15102,trainPhase
5,6,B0,b,b,True,1237,2,15102,trainPhase
6,6,A3,a,a,True,1007,2,15102,trainPhase
7,6,B1,b,b,True,1194,2,15102,trainPhase
0,7,A0,a,a,True,1107,2,15102,trainPhase
1,7,A3,a,a,True,1068,2,15102,trainPhase
2,7,A1,a,b,False,1293,2,15102,trainPhase
3,7,A2,a,a,True,1104,2,15102,trainPhase
4,7,B1,b,b,True,1662,2,15102,trainPhase
5,7,B0,b,b,True,1268,2,15102,trainPhase
6,7,B3,b,b,True,1827,2,15102,trainPhase
7,7,B2,b,b,True,1562,2,15102,trainPhase
0,8,B2,b,b,True,1581,2,15102,trainPhase
1,8,A1,a,b,False,1416,2,15102,trainPhase
2,8,A3,a,a,True,1013,2,15102,trainPhase
3,8,A0,a,a,True,902,2,15102,trainPhase
4,8,A2,a,a,True,958,2,15102,trainPhase
5,8,B1,b,b,True,1085,2,15102,trainPhase
6,8,B3,b,a,False,1348,2,15102,trainPhase
7,8,B0,b,b,True,1334,2,15102,trainPhase
0,9,A2,a,a,True,1134,2,15102,trainPhase
1,9,B0,b,b,True,1906,2,15102,trainPhase
2,9,B2,b,b,True,1319,2,15102,trainPhase
3,9,B3,b,b,True,1367,2,15102,trainPhase
4,9,A0,a,a,True,1089,2,15102,trainPhase
5,9,B1,b,a,False,1339,2,15102,trainPhase
6,9,A1,a,a,True,1002,2,15102,trainPhase
7,9,A3,a,a,True,983,2,15102,trainPhase
0,10,B3,b,a,False,2608,2,15102,trainPhase
1,10,A3,a,a,True,846,2,15102,trainPhase
2,10,A1,a,b,False,1390,2,15102,trainPhase
3,10,A0,a,a,True,1321,2,15102,trainPhase
4,10,A2,a,a,True,833,2,15102,trainPhase
5,10,B2,b,b,True,1238,2,15102,trainPhase
6,10,B0,b,b,True,1283,2,15102,trainPhase
7,10,B1,b,b,True,1685,2,15102,trainPhase
0,11,A2,a,a,True,940,2,15102,trainPhase
1,11,B1,b,b,True,1641,2,15102,trainPhase
2,11,B0,b,b,True,1173,2,15102,trainPhase
3,11,A3,a,a,True,2737,2,15102,trainPhase
4,11,A1,a,b,False,1454,2,15102,trainPhase
5,11,B3,b,a,False,1965,2,15102,trainPhase
6,11,B2,b,b,True,1223,2,15102,trainPhase
7,11,A0,a,a,True,1094,2,15102,trainPhase
0,12,B2,b,b,True,2390,2,15102,trainPhase
1,12,B0,b,b,True,1153,2,15102,trainPhase
2,12,A3,a,a,True,1431,2,15102,trainPhase
3,12,A0,a,a,True,1127,2,15102,trainPhase
4,12,A1,a,a,True,1085,2,15102,trainPhase
5,12,B1,b,a,False,931,2,15102,trainPhase
6,12,B3,b,a,False,1356,2,15102,trainPhase
7,12,A2,a,a,True,879,2,15102,trainPhase
0,13,A2,a,b,False,2397,2,15102,trainPhase
1,13,A0,a,a,True,1229,2,15102,trainPhase
2,13,B3,b,b,True,997,2,15102,trainPhase
3,13,A3,a,a,True,2233,2,15102,trainPhase
4,13,A1,a,b,False,1220,2,15102,trainPhase
5,13,B0,b,b,True,1372,2,15102,trainPhase
6,13,B2,b,b,True,1041,2,15102,trainPhase
7,13,B1,b,b,True,1149,2,15102,trainPhase
0,14,B1,b,b,True,1344,2,15102,trainPhase
1,14,A3,a,a,True,1397,2,15102,trainPhase
2,14,B2,b,b,True,1321,2,15102,trainPhase
3,14,B0,b,b,True,1065,2,15102,trainPhase
4,14,A2,a,a,True,1013,2,15102,trainPhase
5,14,B3,b,a,False,1352,2,15102,trainPhase
6,14,A0,a,a,True,907,2,15102,trainPhase
7,14,A1,a,a,True,1094,2,15102,trainPhase
0,0,B0,b,a,False,3034,2,15107,trainPhase
1,0,A3,a,b,False,1420,2,15107,trainPhase
2,0,A0,a,b,False,2033,2,15107,trainPhase
3,0,B3,b,b,True,4432,2,15107,trainPhase
4,0,A2,a,a,True,1362,2,15107,trainPhase
5,0,A1,a,b,False,1312,2,15107,trainPhase
6,0,B2,b,a,False,2319,2,15107,trainPhase
7,0,B1,b,b,True,1377,2,15107,trainPhase
0,1,A1,a,a,True,2974,2,15107,trainPhase
1,1,B2,b,a,False,2581,2,15107,trainPhase
2,1,B0,b,b,True,1181,2,15107,trainPhase
3,1,B3,b,a,False,1502,2,15107,trainPhase
4,1,B1,b,a,False,1588,2,15107,trainPhase
5,1,A3,a,b,False,2375,2,15107,trainPhase
6,1,A0,a,b,False,1074,2,15107,trainPhase
7,1,A2,a,a,True,1199,2,15107,trainPhase
0,2,B0,b,b,True,2295,2,15107,trainPhase
1,2,A0,a,a,True,2547,2,15107,trainPhase
2,2,A2,a,a,True,1525,2,15107,trainPhase
3,2,A1,a,b,False,2352,2,15107,trainPhase
4,2,B2,b,b,True,1066,2,15107,trainPhase
5,2,B1,b,a,False,1116,2,15107,trainPhase
6,2,B3,b,b,True,1373,2,15107,trainPhase
7,2,A3,a,a,True,1189,2,15107,trainPhase
0,3,B2,b,a,False,3188,2,15107,trainPhase
1,3,A2,a,a,True,1167,2,15107,trainPhase
2,3,A3,a,a,True,1496,2,15107,trainPhase
3,3,B1,b,b,True,1210,2,15107,trainPhase
4,3,A1,a,a,True,1637,2,15107,trainPhase
5,3,B0,b,b,True,1360,2,15107,trainPhase
6,3,A0,a,a,True,1123,2,15107,trainPhase
7,3,B3,b,a,False,1079,2,15107,trainPhase
0,4,B1,b,a,False,2218,2,15107,trainPhase
1,4,A1,a,b,False,1606,2,15107,trainPhase
2,4,A0,a,a,True,2746,2,15107,trainPhase
3,4,B2,b,a,False,1651,2,15107,trainPhase
4,4,A2,a,a,True,1324,2,15107,trainPhase
5,4,B0,b,b,True,1139,2,15107,trainPhase
6,4,A3,a,a,True,1111,2,15107,trainPhase
7,4,B3,b,b,True,3594,2,15107,trainPhase
0,5,B1,b,b,True,1803,2,15107,trainPhase
1,5,A2,a,a,True,1182,2,15107,trainPhase
2,5,B2,b,b,True,1974,2,15107,trainPhase
3,5,A1,a,b,False,2077,2,15107,trainPhase
4,5,A0,a,b,False,5004,2,15107,trainPhase
5,5,B3,b,b,True,2969,2,15107,trainPhase
6,5,A3,a,a,True,1004,2,15107,trainPhase
7,5,B0,b,b,True,1379,2,15107,trainPhase
0,6,B1,b,b,True,6184,2,15107,trainPhase
1,6,A1,a,a,True,3319,2,15107,trainPhase
2,6,A2,a,a,True,1141,2,15107,trainPhase
3,6,A3,a,a,True,1284,2,15107,trainPhase
4,6,B0,b,b,True,1200,2,15107,trainPhase
5,6,B3,b,a,False,3681,2,15107,trainPhase
6,6,A0,a,a,True,2845,2,15107,trainPhase
7,6,B2,b,b,True,1386,2,15107,trainPhase
0,7,A0,a,a,True,1094,2,15107,trainPhase
1,7,B2,b,b,True,5503,2,15107,trainPhase
2,7,B1,b,a,False,1511,2,15107,trainPhase
3,7,B3,b,b,True,1459,2,15107,trainPhase
4,7,A1,a,a,True,2797,2,15107,trainPhase
5,7,B0,b,b,True,1375,2,15107,trainPhase
6,7,A2,a,a,True,1497,2,15107,trainPhase
7,7,A3,a,a,True,1122,2,15107,trainPhase
0,8,A2,a,a,True,1140,2,15107,trainPhase
1,8,A1,a,b,False,3569,2,15107,trainPhase
2,8,B3,b,b,True,1026,2,15107,trainPhase
3,8,B1,b,b,True,959,2,15107,trainPhase
4,8,B2,b,b,True,1589,2,15107,trainPhase
5,8,A3,a,a,True,935,2,15107,trainPhase
6,8,A0,a,a,True,1887,2,15107,trainPhase
7,8,B0,b,b,True,1155,2,15107,trainPhase
0,9,A2,a,a,True,984,2,15107,trainPhase
1,9,B1,b,b,True,4322,2,15107,trainPhase
2,9,A0,a,a,True,1098,2,15107,trainPhase
3,9,B3,b,b,True,2094,2,15107,trainPhase
4,9,B0,b,b,True,1205,2,15107,trainPhase
5,9,A1,a,a,True,1189,2,15107,trainPhase
6,9,B2,b,b,True,2182,2,15107,trainPhase
7,9,A3,a,a,True,1046,2,15107,trainPhase
0,10,A0,a,a,True,1141,2,15107,trainPhase
1,10,A3,a,a,True,1064,2,15107,trainPhase
0,0,A3,a,a,True,2287,2,15112,trainPhase
1,0,A0,a,a,True,1873,2,15112,trainPhase
2,0,B2,b,a,False,1304,2,15112,trainPhase
3,0,A1,a,b,False,1816,2,15112,trainPhase
4,0,B3,b,a,False,3922,2,15112,trainPhase
5,0,B1,b,a,False,1437,2,15112,trainPhase
6,0,B0,b,b,True,2361,2,15112,trainPhase
7,0,A2,a,b,False,1578,2,15112,trainPhase
0,1,B0,b,b,True,1105,2,15112,trainPhase
1,1,A1,a,a,True,3711,2,15112,trainPhase
2,1,A2,a,a,True,1033,2,15112,trainPhase
3,1,B3,b,b,True,1127,2,15112,trainPhase
4,1,B2,b,b,True,1836,2,15112,trainPhase
5,1,B1,b,a,False,1559,2,15112,trainPhase
6,1,A0,a,b,False,3466,2,15112,trainPhase
7,1,A3,a,a,True,1303,2,15112,trainPhase
0,2,A3,a,a,True,2003,2,15112,trainPhase
1,2,B0,b,b,True,999,2,15112,trainPhase
2,2,B3,b,b,True,2661,2,15112,trainPhase
3,2,A1,a,b,False,779,2,15112,trainPhase
4,2,A0,a,b,False,2289,2,15112,trainPhase
5,2,B2,b,b,True,2483,2,15112,trainPhase
6,2,A2,a,a,True,3361,2,15112,trainPhase
7,2,B1,b,b,True,1394,2,15112,trainPhase
0,3,A0,a,b,False,1088,2,15112,trainPhase
1,3,B2,b,b,True,2692,2,15112,trainPhase
2,3,A2,a,a,True,4744,2,15112,trainPhase
3,3,B0,b,b,True,1221,2,15112,trainPhase
4,3,B3,b,b,True,4934,2,15112,trainPhase
5,3,A1,a,b,False,3245,2,15112,trainPhase
6,3,B1,b,b,True,4964,2,15112,trainPhase
7,3,A3,a,a,True,1062,2,15112,trainPhase
0,4,A3,a,a,True,1226,2,15112,trainPhase
1,4,A1,a,b,False,1500,2,15112,trainPhase
2,4,A2,a,a,True,958,2,15112,trainPhase
3,4,B3,b,b,True,1156,2,15112,trainPhase
4,4,B1,b,b,True,1251,2,15112,trainPhase
5,4,B0,b,b,True,754,2,15112,trainPhase
6,4,A0,a,b,False,664,2,15112,trainPhase
7,4,B2,b,a,False,1071,2,15112,trainPhase
0,5,A1,a,b,False,1075,2,15112,trainPhase
1,5,B0,b,b,True,1297,2,15112,trainPhase
2,5,B2,b,a,False,697,2,15112,trainPhase
3,5,B3,b,b,True,4329,2,15112,trainPhase
4,5,B1,b,a,False,1790,2,15112,trainPhase
5,5,A3,a,a,True,1204,2,15112,trainPhase
6,5,A2,a,a,True,1089,2,15112,trainPhase
7,5,A0,a,b,False,795,2,15112,trainPhase
0,6,A2,a,a,True,2126,2,15112,trainPhase
1,6,A1,a,a,True,4288,2,15112,trainPhase
2,6,A3,a,a,True,959,2,15112,trainPhase
3,6,A0,a,b,False,1698,2,15112,trainPhase
4,6,B3,b,a,False,2911,2,15112,trainPhase
5,6,B1,b,a,False,2275,2,15112,trainPhase
6,6,B0,b,b,True,1104,2,15112,trainPhase
7,6,B2,b,b,True,2139,2,15112,trainPhase
0,7,A1,a,b,False,1170,2,15112,trainPhase
1,7,A0,a,a,True,2022,2,15112,trainPhase
2,7,A2,a,a,True,761,2,15112,trainPhase
3,7,B3,b,b,True,2320,2,15112,trainPhase
4,7,B2,b,a,False,2597,2,15112,trainPhase
5,7,B1,b,a,False,1287,2,15112,trainPhase
6,7,A3,a,a,True,918,2,15112,trainPhase
7,7,B0,b,b,True,1372,2,15112,trainPhase
0,8,A2,a,a,True,773,2,15112,trainPhase
1,8,A3,a,a,True,673,2,15112,trainPhase
2,8,A0,a,a,True,2166,2,15112,trainPhase
3,8,B2,b,b,True,2061,2,15112,trainPhase
4,8,B1,b,b,True,1209,2,15112,trainPhase
5,8,B0,b,b,True,1044,2,15112,trainPhase
6,8,B3,b,b,True,1158,2,15112,trainPhase
7,8,A1,a,b,False,983,2,15112,trainPhase
0,9,A2,a,a,True,2679,2,15112,trainPhase
1,9,A0,a,a,True,4336,2,15112,trainPhase
2,9,B1,b,b,True,1225,2,15112,trainPhase
3,9,B2,b,b,True,1539,2,15112,trainPhase
4,9,A3,a,b,False,927,2,15112,trainPhase
5,9,B0,b,b,True,1363,2,15112,trainPhase
6,9,B3,b,b,True,3718,2,15112,trainPhase
7,9,A1,a,b,False,1105,2,15112,trainPhase
0,10,B0,b,b,True,3344,2,15112,trainPhase
1,10,A1,a,b,False,3191,2,15112,trainPhase
2,10,A2,a,a,True,1330,2,15112,trainPhase
3,10,A3,a,a,True,830,2,15112,trainPhase
4,10,B2,b,b,True,2425,2,15112,trainPhase
5,10,A0,a,a,True,4738,2,15112,trainPhase
6,10,B3,b,b,True,1575,2,15112,trainPhase
7,10,B1,b,b,True,2279,2,15112,trainPhase
0,11,A3,a,a,True,1254,2,15112,trainPhase
1,11,B0,b,b,True,1941,2,15112,trainPhase
2,11,B2,b,b,True,1096,2,15112,trainPhase
3,11,A2,a,a,True,1151,2,15112,trainPhase
4,11,A1,a,b,False,8234,2,15112,trainPhase
5,11,B1,b,b,True,1272,2,15112,trainPhase
6,11,A0,a,b,False,1350,2,15112,trainPhase
7,11,B3,b,b,True,1823,2,15112,trainPhase
0,12,B0,b,a,False,2031,2,15112,trainPhase
1,12,B1,b,b,True,1233,2,15112,trainPhase
2,12,A3,a,a,True,1192,2,15112,trainPhase
3,12,A0,a,a,True,1674,2,15112,trainPhase
4,12,B2,b,b,True,7976,2,15112,trainPhase
5,12,B3,b,b,True,2064,2,15112,trainPhase
6,12,A2,a,a,True,953,2,15112,trainPhase
7,12,A1,a,a,True,1397,2,15112,trainPhase
0,13,A3,a,a,True,1543,2,15112,trainPhase
1,13,A1,a,b,False,2671,2,15112,trainPhase
2,13,B3,b,b,True,1288,2,15112,trainPhase
3,13,A0,a,a,True,1414,2,15112,trainPhase
4,13,A2,a,a,True,1270,2,15112,trainPhase
5,13,B0,b,b,True,1920,2,15112,trainPhase
6,13,B2,b,b,True,1281,2,15112,trainPhase
7,13,B1,b,b,True,3164,2,15112,trainPhase
0,14,A2,a,a,True,1663,2,15112,trainPhase
1,14,A0,a,a,True,1262,2,15112,trainPhase
2,14,B0,b,b,True,1380,2,15112,trainPhase
3,14,A1,a,a,True,2299,2,15112,trainPhase
4,14,B2,b,b,True,1053,2,15112,trainPhase
5,14,A3,a,a,True,921,2,15112,trainPhase
6,14,B3,b,b,True,1884,2,15112,trainPhase
7,14,B1,b,b,True,3176,2,15112,trainPhase
0,0,A3,a,a,True,3719,2,15117,trainPhase
1,0,A2,a,a,True,2738,2,15117,trainPhase
2,0,A0,a,a,True,2234,2,15117,trainPhase
3,0,B2,b,a,False,1973,2,15117,trainPhase
4,0,A1,a,b,False,1809,2,15117,trainPhase
5,0,B3,b,a,False,5240,2,15117,trainPhase
6,0,B1,b,a,False,5933,2,15117,trainPhase
7,0,B0,b,a,False,1334,2,15117,trainPhase
0,1,B0,b,b,True,3382,2,15117,trainPhase
1,1,A0,a,b,False,1667,2,15117,trainPhase
2,1,B1,b,a,False,1866,2,15117,trainPhase
3,1,A1,a,b,False,1308,2,15117,trainPhase
4,1,B2,b,a,False,2444,2,15117,trainPhase
5,1,A3,a,b,False,4429,2,15117,trainPhase
6,1,B3,b,a,False,2165,2,15117,trainPhase
7,1,A2,a,a,True,1938,2,15117,trainPhase
0,2,B3,b,b,True,1346,2,15117,trainPhase
1,2,A2,a,a,True,3476,2,15117,trainPhase
2,2,B2,b,b,True,1571,2,15117,trainPhase
3,2,A3,a,a,True,1174,2,15117,trainPhase
4,2,B1,b,b,True,1053,2,15117,trainPhase
5,2,A0,a,a,True,1669,2,15117,trainPhase
6,2,B0,b,b,True,1086,2,15117,trainPhase
7,2,A1,a,a,True,1371,2,15117,trainPhase
0,3,B3,b,b,True,1326,2,15117,trainPhase
1,3,B1,b,a,False,1045,2,15117,trainPhase
2,3,A2,a,a,True,1639,2,15117,trainPhase
3,3,B2,b,b,True,1247,2,15117,trainPhase
4,3,A0,a,a,True,1309,2,15117,trainPhase
5,3,B0,b,b,True,1025,2,15117,trainPhase
6,3,A1,a,a,True,1118,2,15117,trainPhase
7,3,A3,a,b,False,1440,2,15117,trainPhase
0,4,A1,a,b,False,590,2,15117,trainPhase
1,4,B1,b,b,True,983,2,15117,trainPhase
2,4,B2,b,a,False,645,2,15117,trainPhase
3,4,A2,a,a,True,697,2,15117,trainPhase
4,4,A0,a,b,False,966,2,15117,trainPhase
5,4,A3,a,b,False,2121,2,15117,trainPhase
6,4,B3,b,b,True,628,2,15117,trainPhase
7,4,B0,b,a,False,921,2,15117,trainPhase
0,5,A1,a,a,True,1534,2,15117,trainPhase
1,5,B0,b,b,True,2157,2,15117,trainPhase
2,5,B1,b,a,False,1603,2,15117,trainPhase
3,5,B2,b,a,False,1429,2,15117,trainPhase
4,5,B3,b,b,True,1909,2,15117,trainPhase
5,5,A2,a,a,True,5628,2,15117,trainPhase
6,5,A0,a,b,False,2326,2,15117,trainPhase
7,5,A3,a,a,True,883,2,15117,trainPhase
0,6,B0,b,b,True,1148,2,15117,trainPhase
1,6,A1,a,a,True,1920,2,15117,trainPhase
2,6,A0,a,b,False,1254,2,15117,trainPhase
3,6,B2,b,a,False,2244,2,15117,trainPhase
4,6,B1,b,b,True,1029,2,15117,trainPhase
5,6,A3,a,a,True,1744,2,15117,trainPhase
6,6,A2,a,a,True,1359,2,15117,trainPhase
7,6,B3,b,a,False,2172,2,15117,trainPhase
0,7,B2,b,a,False,1452,2,15117,trainPhase
1,7,B3,b,b,True,1776,2,15117,trainPhase
2,7,B0,b,a,False,1381,2,15117,trainPhase
3,7,B1,b,b,True,2299,2,15117,trainPhase
4,7,A3,a,a,True,1045,2,15117,trainPhase
5,7,A0,a,b,False,622,2,15117,trainPhase
6,7,A1,a,a,True,686,2,15117,trainPhase
7,7,A2,a,b,False,1931,2,15117,trainPhase
0,8,B0,b,a,False,701,2,15117,trainPhase
1,8,A1,a,b,False,669,2,15117,trainPhase
2,8,B1,b,b,True,826,2,15117,trainPhase
3,8,B3,b,a,False,853,2,15117,trainPhase
4,8,A2,a,a,True,677,2,15117,trainPhase
5,8,B2,b,b,True,717,2,15117,trainPhase
6,8,A0,a,a,True,701,2,15117,trainPhase
7,8,A3,a,b,False,863,2,15117,trainPhase
0,9,B0,b,b,True,618,2,15117,trainPhase
1,9,B1,b,a,False,701,2,15117,trainPhase
2,9,A1,a,b,False,725,2,15117,trainPhase
3,9,A2,a,a,True,1181,2,15117,trainPhase
4,9,B2,b,b,True,1505,2,15117,trainPhase
5,9,A3,a,a,True,1398,2,15117,trainPhase
6,9,A0,a,b,False,814,2,15117,trainPhase
7,9,B3,b,b,True,838,2,15117,trainPhase
0,10,A2,a,a,True,945,2,15117,trainPhase
1,10,A0,a,b,False,975,2,15117,trainPhase
2,10,B2,b,b,True,389,2,15117,trainPhase
3,10,A3,a,a,True,2005,2,15117,trainPhase
4,10,B1,b,b,True,446,2,15117,trainPhase
5,10,B3,b,a,False,886,2,15117,trainPhase
6,10,A1,a,a,True,565,2,15117,trainPhase
7,10,B0,b,b,True,1947,2,15117,trainPhase
0,11,B1,b,a,False,1166,2,15117,trainPhase
1,11,B0,b,a,False,429,2,15117,trainPhase
2,11,A0,a,a,True,646,2,15117,trainPhase
3,11,A2,a,b,False,668,2,15117,trainPhase
4,11,A3,a,b,False,436,2,15117,trainPhase
5,11,A1,a,b,False,1141,2,15117,trainPhase
6,11,B3,b,a,False,2290,2,15117,trainPhase
7,11,B2,b,a,False,1557,2,15117,trainPhase
0,12,B0,b,b,True,2077,2,15117,trainPhase
1,12,A2,a,b,False,1140,2,15117,trainPhase
2,12,B1,b,a,False,1500,2,15117,trainPhase
3,12,A1,a,a,True,1969,2,15117,trainPhase
4,12,A3,a,b,False,638,2,15117,trainPhase
5,12,B3,b,a,False,1509,2,15117,trainPhase
6,12,B2,b,b,True,1166,2,15117,trainPhase
7,12,A0,a,a,True,1281,2,15117,trainPhase
0,13,A1,a,a,True,1038,2,15117,trainPhase
1,13,B3,b,b,True,1303,2,15117,trainPhase
2,13,A2,a,a,True,1108,2,15117,trainPhase
3,13,B0,b,b,True,648,2,15117,trainPhase
4,13,A0,a,a,True,686,2,15117,trainPhase
5,13,B2,b,b,True,1124,2,15117,trainPhase
6,13,A3,a,a,True,997,2,15117,trainPhase
7,13,B1,b,b,True,677,2,15117,trainPhase
0,14,B2,b,a,False,509,2,15117,trainPhase
1,14,A0,a,a,True,413,2,15117,trainPhase
2,14,A1,a,b,False,939,2,15117,trainPhase
3,14,A3,a,a,True,1339,2,15117,trainPhase
4,14,B3,b,b,True,948,2,15117,trainPhase
5,14,B0,b,a,False,633,2,15117,trainPhase
6,14,A2,a,a,True,404,2,15117,trainPhase
7,14,B1,b,b,True,430,2,15117,trainPhase
0,0,A0,a,b,False,2228,2,15122,trainPhase
1,0,A1,a,a,True,2155,2,15122,trainPhase
2,0,B2,b,a,False,1531,2,15122,trainPhase
3,0,A2,a,b,False,2651,2,15122,trainPhase
4,0,B3,b,a,False,1549,2,15122,trainPhase
5,0,A3,a,a,True,2064,2,15122,trainPhase
6,0,B0,b,b,True,1430,2,15122,trainPhase
7,0,B1,b,a,False,720,2,15122,trainPhase
0,1,A3,a,b,False,4197,2,15122,trainPhase
1,1,A0,a,b,False,1133,2,15122,trainPhase
2,1,A2,a,a,True,2748,2,15122,trainPhase
3,1,B3,b,a,False,1168,2,15122,trainPhase
4,1,B2,b,b,True,3446,2,15122,trainPhase
5,1,A1,a,a,True,2441,2,15122,trainPhase
6,1,B0,b,a,False,1724,2,15122,trainPhase
7,1,B1,b,b,True,1566,2,15122,trainPhase
0,2,A1,a,a,True,994,2,15122,trainPhase
1,2,B3,b,b,True,3364,2,15122,trainPhase
2,2,B0,b,b,True,922,2,15122,trainPhase
3,2,A2,a,b,False,2219,2,15122,trainPhase
4,2,A3,a,a,True,2003,2,15122,trainPhase
5,2,B2,b,b,True,1781,2,15122,trainPhase
6,2,B1,b,b,True,952,2,15122,trainPhase
7,2,A0,a,b,False,1158,2,15122,trainPhase
0,3,A1,a,a,True,1207,2,15122,trainPhase
1,3,A3,a,b,False,1100,2,15122,trainPhase
2,3,B3,b,a,False,2310,2,15122,trainPhase
3,3,B1,b,b,True,1759,2,15122,trainPhase
4,3,A2,a,a,True,1552,2,15122,trainPhase
5,3,B0,b,b,True,1824,2,15122,trainPhase
6,3,B2,b,a,False,1363,2,15122,trainPhase
7,3,A0,a,b,False,1120,2,15122,trainPhase
0,4,A0,a,b,False,2002,2,15122,trainPhase
1,4,B3,b,a,False,878,2,15122,trainPhase
2,4,A1,a,a,True,1218,2,15122,trainPhase
3,4,A3,a,a,True,1815,2,15122,trainPhase
4,4,B0,b,b,True,1197,2,15122,trainPhase
5,4,A2,a,a,True,1008,2,15122,trainPhase
6,4,B1,b,b,True,990,2,15122,trainPhase
7,4,B2,b,a,False,1433,2,15122,trainPhase
0,5,A0,a,b,False,1799,2,15122,trainPhase
1,5,B0,b,b,True,1581,2,15122,trainPhase
2,5,A1,a,a,True,823,2,15122,trainPhase
3,5,B3,b,a,False,1730,2,15122,trainPhase
4,5,A3,a,a,True,1730,2,15122,trainPhase
5,5,B2,b,b,True,1303,2,15122,trainPhase
6,5,B1,b,b,True,2858,2,15122,trainPhase
7,5,A2,a,a,True,933,2,15122,trainPhase
0,6,A0,a,a,True,1642,2,15122,trainPhase
1,6,B3,b,b,True,3468,2,15122,trainPhase
2,6,A3,a,a,True,1646,2,15122,trainPhase
3,6,B2,b,b,True,2165,2,15122,trainPhase
4,6,B0,b,a,False,1482,2,15122,trainPhase
5,6,A2,a,a,True,1171,2,15122,trainPhase
6,6,A1,a,b,False,1092,2,15122,trainPhase
7,6,B1,b,a,False,1374,2,15122,trainPhase
0,7,B2,b,a,False,1051,2,15122,trainPhase
1,7,B3,b,a,False,1035,2,15122,trainPhase
2,7,A2,a,a,True,1966,2,15122,trainPhase
3,7,A0,a,a,True,1868,2,15122,trainPhase
4,7,A3,a,a,True,1349,2,15122,trainPhase
5,7,B1,b,b,True,1261,2,15122,trainPhase
6,7,B0,b,b,True,1070,2,15122,trainPhase
7,7,A1,a,a,True,1144,2,15122,trainPhase
0,8,A0,a,b,False,907,2,15122,trainPhase
1,8,A1,a,a,True,798,2,15122,trainPhase
2,8,B2,b,a,False,2689,2,15122,trainPhase
3,8,B0,b,b,True,1453,2,15122,trainPhase
4,8,B1,b,a,False,1100,2,15122,trainPhase
5,8,A3,a,a,True,1193,2,15122,trainPhase
6,8,B3,b,a,False,945,2,15122,trainPhase
7,8,A2,a,a,True,1203,2,15122,trainPhase
0,9,B1,b,b,True,1077,2,15122,trainPhase
1,9,B0,b,b,True,984,2,15122,trainPhase
2,9,A3,a,a,True,1035,2,15122,trainPhase
3,9,A0,a,b,False,1453,2,15122,trainPhase
4,9,B3,b,a,False,1683,2,15122,trainPhase
5,9,A2,a,a,True,981,2,15122,trainPhase
6,9,A1,a,b,False,2079,2,15122,trainPhase
7,9,B2,b,b,True,1237,2,15122,trainPhase
0,10,A1,a,a,True,869,2,15122,trainPhase
1,10,B0,b,b,True,917,2,15122,trainPhase
2,10,A2,a,b,False,1819,2,15122,trainPhase
3,10,A0,a,a,True,2197,2,15122,trainPhase
4,10,B2,b,b,True,2886,2,15122,trainPhase
5,10,B1,b,a,False,1365,2,15122,trainPhase
6,10,B3,b,a,False,925,2,15122,trainPhase
7,10,A3,a,a,True,901,2,15122,trainPhase
0,11,B1,b,b,True,1189,2,15122,trainPhase
1,11,A0,a,a,True,1437,2,15122,trainPhase
2,11,B2,b,b,True,1437,2,15122,trainPhase
3,11,B3,b,a,False,2142,2,15122,trainPhase
4,11,A1,a,a,True,827,2,15122,trainPhase
5,11,B0,b,b,True,1169,2,15122,trainPhase
6,11,A2,a,b,False,1572,2,15122,trainPhase
7,11,A3,a,a,True,2158,2,15122,trainPhase
0,12,A0,a,a,True,4061,2,15122,trainPhase
1,12,B0,b,b,True,2780,2,15122,trainPhase
2,12,B2,b,b,True,1309,2,15122,trainPhase
3,12,B1,b,a,False,1679,2,15122,trainPhase
4,12,A1,a,a,True,1023,2,15122,trainPhase
5,12,A2,a,b,False,1829,2,15122,trainPhase
6,12,B3,b,a,False,1292,2,15122,trainPhase
7,12,A3,a,a,True,1460,2,15122,trainPhase
0,13,B0,b,b,True,991,2,15122,trainPhase
1,13,B2,b,a,False,2080,2,15122,trainPhase
2,13,B3,b,a,False,1225,2,15122,trainPhase
3,13,A3,a,a,True,1249,2,15122,trainPhase
4,13,A2,a,a,True,2162,2,15122,trainPhase
5,13,A0,a,a,True,1282,2,15122,trainPhase
6,13,A1,a,a,True,2303,2,15122,trainPhase
7,13,B1,b,b,True,1268,2,15122,trainPhase
0,14,A2,a,b,False,1170,2,15122,trainPhase
1,14,A3,a,b,False,1277,2,15122,trainPhase
2,14,B3,b,a,False,1344,2,15122,trainPhase
3,14,B1,b,b,True,2098,2,15122,trainPhase
4,14,B2,b,b,True,1088,2,15122,trainPhase
5,14,A1,a,a,True,1041,2,15122,trainPhase
6,14,A0,a,a,True,1697,2,15122,trainPhase
7,14,B0,b,b,True,2335,2,15122,trainPhase
0,0,A2,a,a,True,4088,2,15127,trainPhase
1,0,A3,a,a,True,2952,2,15127,trainPhase
2,0,B3,b,a,False,3186,2,15127,trainPhase
3,0,A1,a,b,False,3582,2,15127,trainPhase
4,0,B1,b,a,False,1738,2,15127,trainPhase
5,0,B0,b,a,False,4859,2,15127,trainPhase
6,0,A0,a,b,False,3688,2,15127,trainPhase
7,0,B2,b,b,True,3032,2,15127,trainPhase
0,1,B0,b,a,False,2917,2,15127,trainPhase
1,1,A0,a,b,False,5122,2,15127,trainPhase
2,1,B3,b,b,True,3582,2,15127,trainPhase
3,1,A1,a,b,False,2360,2,15127,trainPhase
4,1,B1,b,a,False,4100,2,15127,trainPhase
5,1,A3,a,b,False,4439,2,15127,trainPhase
6,1,B2,b,a,False,2551,2,15127,trainPhase
7,1,A2,a,b,False,4259,2,15127,trainPhase
0,2,A0,a,b,False,2374,2,15127,trainPhase
1,2,B1,b,a,False,2007,2,15127,trainPhase
2,2,A3,a,a,True,4039,2,15127,trainPhase
3,2,A1,a,a,True,2254,2,15127,trainPhase
4,2,B3,b,a,False,1841,2,15127,trainPhase
5,2,A2,a,b,False,3969,2,15127,trainPhase
6,2,B2,b,a,False,2265,2,15127,trainPhase
7,2,B0,b,a,False,1915,2,15127,trainPhase
0,3,A0,a,b,False,3390,2,15127,trainPhase
1,3,B1,b,a,False,2942,2,15127,trainPhase
2,3,B0,b,b,True,1672,2,15127,trainPhase
3,3,A2,a,b,False,2336,2,15127,trainPhase
4,3,B3,b,a,False,2234,2,15127,trainPhase
5,3,A3,a,b,False,1722,2,15127,trainPhase
6,3,B2,b,b,True,4641,2,15127,trainPhase
7,3,A1,a,a,True,2112,2,15127,trainPhase
0,4,B2,b,b,True,2249,2,15127,trainPhase
1,4,B1,b,b,True,5798,2,15127,trainPhase
2,4,A2,a,b,False,3782,2,15127,trainPhase
3,4,B3,b,a,False,2865,2,15127,trainPhase
4,4,B0,b,b,True,4792,2,15127,trainPhase
5,4,A3,a,b,False,3948,2,15127,trainPhase
6,4,A1,a,a,True,7123,2,15127,trainPhase
7,4,A0,a,a,True,3160,2,15127,trainPhase
0,5,A1,a,a,True,1628,2,15127,trainPhase
1,5,A0,a,a,True,1304,2,15127,trainPhase
2,5,A2,a,b,False,1792,2,15127,trainPhase
3,5,B3,b,a,False,1332,2,15127,trainPhase
4,5,B2,b,b,True,1849,2,15127,trainPhase
5,5,A3,a,b,False,3329,2,15127,trainPhase
6,5,B0,b,a,False,7012,2,15127,trainPhase
7,5,B1,b,a,False,2492,2,15127,trainPhase
0,6,A2,a,b,False,1574,2,15127,trainPhase
1,6,B1,b,b,True,2711,2,15127,trainPhase
2,6,A3,a,b,False,3072,2,15127,trainPhase
3,6,B3,b,b,True,2558,2,15127,trainPhase
4,6,A1,a,a,True,6055,2,15127,trainPhase
5,6,B2,b,b,True,2227,2,15127,trainPhase
6,6,B0,b,b,True,1721,2,15127,trainPhase
7,6,A0,a,a,True,1158,2,15127,trainPhase
0,7,B0,b,b,True,2186,2,15127,trainPhase
1,7,A0,a,a,True,3909,2,15127,trainPhase
2,7,A3,a,a,True,1540,2,15127,trainPhase
3,7,A2,a,a,True,1516,2,15127,trainPhase
4,7,B3,b,a,False,1490,2,15127,trainPhase
5,7,A1,a,b,False,2535,2,15127,trainPhase
6,7,B1,b,a,False,2078,2,15127,trainPhase
7,7,B2,b,b,True,2455,2,15127,trainPhase
0,8,A1,a,a,True,2318,2,15127,trainPhase
1,8,B3,b,a,False,1443,2,15127,trainPhase
2,8,A2,a,a,True,2603,2,15127,trainPhase
3,8,A3,a,a,True,1471,2,15127,trainPhase
4,8,B1,b,b,True,3198,2,15127,trainPhase
5,8,B0,b,b,True,3261,2,15127,trainPhase
6,8,A0,a,a,True,2529,2,15127,trainPhase
7,8,B2,b,b,True,3792,2,15127,trainPhase
0,9,B3,b,b,True,1828,2,15127,trainPhase
1,9,A1,a,b,False,1995,2,15127,trainPhase
2,9,A2,a,b,False,2462,2,15127,trainPhase
3,9,A3,a,a,True,1595,2,15127,trainPhase
4,9,B1,b,a,False,2769,2,15127,trainPhase
5,9,B0,b,b,True,2108,2,15127,trainPhase
6,9,A0,a,a,True,5446,2,15127,trainPhase
7,9,B2,b,b,True,3665,2,15127,trainPhase
0,10,A3,a,a,True,1743,2,15127,trainPhase
1,10,A1,a,a,True,3259,2,15127,trainPhase
2,10,B3,b,a,False,3256,2,15127,trainPhase
3,10,B0,b,a,False,2410,2,15127,trainPhase
4,10,B2,b,b,True,2328,2,15127,trainPhase
5,10,A0,a,a,True,2270,2,15127,trainPhase
6,10,B1,b,b,True,4385,2,15127,trainPhase
7,10,A2,a,a,True,4114,2,15127,trainPhase
0,11,A2,a,a,True,2757,2,15127,trainPhase
1,11,B3,b,b,True,2696,2,15127,trainPhase
2,11,B0,b,b,True,5815,2,15127,trainPhase
3,11,B1,b,a,False,4057,2,15127,trainPhase
4,11,A3,a,a,True,3677,2,15127,trainPhase
5,11,A1,a,b,False,4313,2,15127,trainPhase
6,11,B2,b,a,False,1844,2,15127,trainPhase
7,11,A0,a,a,True,1645,2,15127,trainPhase
0,12,B3,b,b,True,2210,2,15127,trainPhase
1,12,B1,b,a,False,2331,2,15127,trainPhase
2,12,A1,a,b,False,3101,2,15127,trainPhase
3,12,B0,b,b,True,2370,2,15127,trainPhase
4,12,A0,a,a,True,2869,2,15127,trainPhase
5,12,A3,a,b,False,2835,2,15127,trainPhase
6,12,A2,a,a,True,3310,2,15127,trainPhase
7,12,B2,b,b,True,3063,2,15127,trainPhase
0,13,A0,a,a,True,1947,2,15127,trainPhase
1,13,B1,b,b,True,3230,2,15127,trainPhase
2,13,B3,b,a,False,2825,2,15127,trainPhase
3,13,A2,a,b,False,5131,2,15127,trainPhase
4,13,A1,a,b,False,2789,2,15127,trainPhase
5,13,B0,b,a,False,1827,2,15127,trainPhase
6,13,A3,a,b,False,9812,2,15127,trainPhase
7,13,B2,b,a,False,1876,2,15127,trainPhase
0,14,A1,a,b,False,3460,2,15127,trainPhase
1,14,A0,a,a,True,2832,2,15127,trainPhase
2,14,A2,a,b,False,2968,2,15127,trainPhase
3,14,A3,a,b,False,4710,2,15127,trainPhase
4,14,B3,b,b,True,4666,2,15127,trainPhase
5,14,B1,b,a,False,2371,2,15127,trainPhase
6,14,B0,b,a,False,3160,2,15127,trainPhase
7,14,B2,b,b,True,8328,2,15127,trainPhase
0,0,A0,a,b,False,3110,2,15132,trainPhase
1,0,B3,b,b,True,2019,2,15132,trainPhase
2,0,A1,a,b,False,1331,2,15132,trainPhase
3,0,B1,b,a,False,1392,2,15132,trainPhase
4,0,A3,a,a,True,1824,2,15132,trainPhase
5,0,A2,a,b,False,923,2,15132,trainPhase
6,0,B2,b,a,False,5387,2,15132,trainPhase
7,0,B0,b,a,False,1436,2,15132,trainPhase
0,1,B1,b,b,True,2896,2,15132,trainPhase
1,1,A3,a,b,False,1552,2,15132,trainPhase
2,1,A0,a,b,False,1100,2,15132,trainPhase
3,1,A2,a,a,True,1797,2,15132,trainPhase
4,1,A1,a,a,True,2450,2,15132,trainPhase
5,1,B0,b,b,True,1432,2,15132,trainPhase
6,1,B2,b,a,False,1336,2,15132,trainPhase
7,1,B3,b,a,False,1090,2,15132,trainPhase
0,2,A1,a,a,True,1071,2,15132,trainPhase
1,2,A2,a,b,False,1157,2,15132,trainPhase
2,2,A0,a,a,True,2160,2,15132,trainPhase
3,2,B1,b,a,False,2432,2,15132,trainPhase
4,2,B3,b,b,True,5681,2,15132,trainPhase
5,2,B2,b,a,False,2123,2,15132,trainPhase
6,2,A3,a,b,False,1203,2,15132,trainPhase
7,2,B0,b,b,True,2593,2,15132,trainPhase
0,3,B1,b,a,False,1904,2,15132,trainPhase
1,3,A1,a,a,True,1060,2,15132,trainPhase
2,3,B0,b,b,True,1574,2,15132,trainPhase
3,3,A2,a,a,True,3618,2,15132,trainPhase
4,3,B2,b,b,True,4439,2,15132,trainPhase
5,3,A0,a,b,False,3984,2,15132,trainPhase
6,3,B3,b,a,False,1078,2,15132,trainPhase
7,3,A3,a,a,True,2841,2,15132,trainPhase
0,4,B0,b,b,True,777,2,15132,trainPhase
1,4,A1,a,a,True,2921,2,15132,trainPhase
2,4,A2,a,a,True,673,2,15132,trainPhase
3,4,B2,b,b,True,1672,2,15132,trainPhase
4,4,B1,b,b,True,850,2,15132,trainPhase
5,4,A3,a,a,True,1068,2,15132,trainPhase
6,4,A0,a,a,True,2669,2,15132,trainPhase
7,4,B3,b,a,False,877,2,15132,trainPhase
0,5,B1,b,b,True,1799,2,15132,trainPhase
1,5,B3,b,b,True,836,2,15132,trainPhase
2,5,B2,b,b,True,913,2,15132,trainPhase
3,5,B0,b,b,True,968,2,15132,trainPhase
4,5,A0,a,a,True,1865,2,15132,trainPhase
5,5,A1,a,a,True,1250,2,15132,trainPhase
6,5,A2,a,a,True,1309,2,15132,trainPhase
7,5,A3,a,a,True,1165,2,15132,trainPhase
0,6,A2,a,a,True,2410,2,15132,trainPhase
1,6,B1,b,b,True,4361,2,15132,trainPhase
2,6,B2,b,b,True,550,2,15132,trainPhase
3,6,B0,b,b,True,564,2,15132,trainPhase
4,6,B3,b,a,False,2213,2,15132,trainPhase
5,6,A1,a,b,False,1530,2,15132,trainPhase
6,6,A0,a,a,True,1470,2,15132,trainPhase
7,6,A3,a,a,True,674,2,15132,trainPhase
0,7,B1,b,a,False,845,2,15132,trainPhase
1,7,B0,b,b,True,1078,2,15132,trainPhase
2,7,A1,a,b,False,1274,2,15132,trainPhase
3,7,B2,b,a,False,1245,2,15132,trainPhase
4,7,B3,b,b,True,4666,2,15132,trainPhase
5,7,A0,a,a,True,1307,2,15132,trainPhase
6,7,A3,a,a,True,936,2,15132,trainPhase
7,7,A2,a,a,True,987,2,15132,trainPhase
0,8,A1,a,b,False,985,2,15132,trainPhase
1,8,B3,b,b,True,1457,2,15132,trainPhase
2,8,B1,b,b,True,2299,2,15132,trainPhase
3,8,A2,a,a,True,1312,2,15132,trainPhase
4,8,A3,a,a,True,683,2,15132,trainPhase
5,8,B0,b,b,True,896,2,15132,trainPhase
6,8,B2,b,a,False,1800,2,15132,trainPhase
7,8,A0,a,a,True,1177,2,15132,trainPhase
0,9,B0,b,b,True,1877,2,15132,trainPhase
1,9,B2,b,a,False,2373,2,15132,trainPhase
2,9,A1,a,b,False,2916,2,15132,trainPhase
3,9,B3,b,a,False,763,2,15132,trainPhase
4,9,A2,a,a,True,698,2,15132,trainPhase
5,9,B1,b,a,False,769,2,15132,trainPhase
6,9,A3,a,a,True,747,2,15132,trainPhase
7,9,A0,a,a,True,4085,2,15132,trainPhase
0,10,B0,b,b,True,935,2,15132,trainPhase
1,10,B3,b,a,False,1207,2,15132,trainPhase
2,10,B1,b,a,False,908,2,15132,trainPhase
3,10,A1,a,b,False,1564,2,15132,trainPhase
4,10,A2,a,a,True,724,2,15132,trainPhase
5,10,A3,a,a,True,645,2,15132,trainPhase
6,10,A0,a,a,True,893,2,15132,trainPhase
7,10,B2,b,a,False,956,2,15132,trainPhase
0,11,A0,a,a,True,1021,2,15132,trainPhase
1,11,A3,a,a,True,807,2,15132,trainPhase
2,11,B1,b,a,False,1355,2,15132,trainPhase
3,11,B3,b,b,True,1412,2,15132,trainPhase
4,11,B2,b,b,True,728,2,15132,trainPhase
5,11,A2,a,a,True,743,2,15132,trainPhase
6,11,A1,a,b,False,4000,2,15132,trainPhase
7,11,B0,b,b,True,1114,2,15132,trainPhase
0,12,A0,a,a,True,1078,2,15132,trainPhase
1,12,A1,a,b,False,1637,2,15132,trainPhase
2,12,B2,b,b,True,2737,2,15132,trainPhase
3,12,B1,b,b,True,1313,2,15132,trainPhase
4,12,B3,b,a,False,2247,2,15132,trainPhase
5,12,A3,a,a,True,701,2,15132,trainPhase
6,12,A2,a,a,True,643,2,15132,trainPhase
7,12,B0,b,b,True,1792,2,15132,trainPhase
0,13,B3,b,a,False,1168,2,15132,trainPhase
1,13,A3,a,a,True,806,2,15132,trainPhase
2,13,A2,a,a,True,640,2,15132,trainPhase
3,13,A0,a,a,True,1063,2,15132,trainPhase
4,13,B2,b,b,True,2545,2,15132,trainPhase
5,13,B1,b,b,True,1297,2,15132,trainPhase
6,13,A1,a,b,False,765,2,15132,trainPhase
7,13,B0,b,b,True,2668,2,15132,trainPhase
0,14,B3,b,b,True,1825,2,15132,trainPhase
1,14,A0,a,a,True,990,2,15132,trainPhase
2,14,A3,a,a,True,1147,2,15132,trainPhase
3,14,B1,b,b,True,3644,2,15132,trainPhase
4,14,A1,a,b,False,3036,2,15132,trainPhase
5,14,A2,a,a,True,1473,2,15132,trainPhase
6,14,B0,b,b,True,1782,2,15132,trainPhase
7,14,B2,b,a,False,1079,2,15132,trainPhase
0,0,B3,b,a,False,2043,2,15137,trainPhase
1,0,A1,a,b,False,1219,2,15137,trainPhase
2,0,B2,b,b,True,1179,2,15137,trainPhase
3,0,B1,b,b,True,1107,2,15137,trainPhase
4,0,A3,a,a,True,1172,2,15137,trainPhase
5,0,A2,a,b,False,1038,2,15137,trainPhase
6,0,A0,a,b,False,1142,2,15137,trainPhase
7,0,B0,b,b,True,3510,2,15137,trainPhase
0,1,B1,b,a,False,827,2,15137,trainPhase
1,1,A1,a,a,True,956,2,15137,trainPhase
2,1,A0,a,a,True,2341,2,15137,trainPhase
3,1,B2,b,a,False,1185,2,15137,trainPhase
4,1,A2,a,a,True,844,2,15137,trainPhase
5,1,A3,a,a,True,831,2,15137,trainPhase
6,1,B3,b,b,True,1031,2,15137,trainPhase
7,1,B0,b,a,False,2557,2,15137,trainPhase
0,2,B2,b,b,True,1149,2,15137,trainPhase
1,2,B0,b,b,True,836,2,15137,trainPhase
2,2,A0,a,a,True,843,2,15137,trainPhase
3,2,B3,b,a,False,1286,2,15137,trainPhase
4,2,B1,b,b,True,1028,2,15137,trainPhase
5,2,A2,a,a,True,1005,2,15137,trainPhase
6,2,A1,a,b,False,1789,2,15137,trainPhase
7,2,A3,a,b,False,1007,2,15137,trainPhase
0,3,B2,b,b,True,951,2,15137,trainPhase
1,3,A0,a,a,True,896,2,15137,trainPhase
2,3,B1,b,b,True,1028,2,15137,trainPhase
3,3,A1,a,a,True,1049,2,15137,trainPhase
4,3,B0,b,b,True,851,2,15137,trainPhase
5,3,A2,a,a,True,840,2,15137,trainPhase
6,3,B3,b,a,False,917,2,15137,trainPhase
7,3,A3,a,a,True,965,2,15137,trainPhase
0,4,B2,b,b,True,958,2,15137,trainPhase
1,4,B3,b,a,False,1054,2,15137,trainPhase
2,4,A3,a,a,True,1007,2,15137,trainPhase
3,4,B1,b,b,True,773,2,15137,trainPhase
4,4,A0,a,a,True,901,2,15137,trainPhase
5,4,A2,a,a,True,909,2,15137,trainPhase
6,4,A1,a,a,True,799,2,15137,trainPhase
7,4,B0,b,b,True,913,2,15137,trainPhase
0,5,A0,a,b,False,2595,2,15137,trainPhase
1,5,A1,a,a,True,1095,2,15137,trainPhase
2,5,A2,a,a,True,1187,2,15137,trainPhase
3,5,B1,b,b,True,1069,2,15137,trainPhase
4,5,B2,b,b,True,1019,2,15137,trainPhase
5,5,B3,b,a,False,1132,2,15137,trainPhase
6,5,A3,a,a,True,822,2,15137,trainPhase
7,5,B0,b,b,True,717,2,15137,trainPhase
0,6,A3,a,b,False,1022,2,15137,trainPhase
1,6,A0,a,a,True,1889,2,15137,trainPhase
2,6,A1,a,a,True,988,2,15137,trainPhase
3,6,B3,b,a,False,682,2,15137,trainPhase
4,6,B1,b,b,True,730,2,15137,trainPhase
5,6,A2,a,b,False,754,2,15137,trainPhase
6,6,B0,b,b,True,4453,2,15137,trainPhase
7,6,B2,b,b,True,799,2,15137,trainPhase
0,7,B2,b,b,True,1358,2,15137,trainPhase
1,7,A0,a,a,True,1889,2,15137,trainPhase
2,7,B1,b,b,True,2396,2,15137,trainPhase
3,7,A3,a,a,True,942,2,15137,trainPhase
4,7,A2,a,a,True,3660,2,15137,trainPhase
5,7,B3,b,b,True,1180,2,15137,trainPhase
6,7,A1,a,a,True,1210,2,15137,trainPhase
7,7,B0,b,b,True,1747,2,15137,trainPhase
0,8,B3,b,b,True,1438,2,15137,trainPhase
1,8,B1,b,b,True,2517,2,15137,trainPhase
2,8,B0,b,b,True,966,2,15137,trainPhase
3,8,A2,a,a,True,1036,2,15137,trainPhase
4,8,B2,b,b,True,2086,2,15137,trainPhase
5,8,A1,a,a,True,1098,2,15137,trainPhase
0,0,A3,a,a,True,4388,2,15142,trainPhase
1,0,B0,b,a,False,2095,2,15142,trainPhase
2,0,B1,b,a,False,2641,2,15142,trainPhase
3,0,A2,a,b,False,1399,2,15142,trainPhase
4,0,A0,a,a,True,1110,2,15142,trainPhase
5,0,A1,a,b,False,869,2,15142,trainPhase
6,0,B2,b,b,True,1974,2,15142,trainPhase
7,0,B3,b,a,False,1063,2,15142,trainPhase
0,1,A1,a,a,True,2349,2,15142,trainPhase
1,1,A0,a,b,False,1358,2,15142,trainPhase
2,1,B0,b,b,True,1731,2,15142,trainPhase
3,1,B3,b,a,False,2155,2,15142,trainPhase
4,1,A2,a,b,False,675,2,15142,trainPhase
5,1,A3,a,a,True,818,2,15142,trainPhase
6,1,B2,b,a,False,1238,2,15142,trainPhase
7,1,B1,b,b,True,1500,2,15142,trainPhase
0,2,A2,a,b,False,1079,2,15142,trainPhase
1,2,A1,a,a,True,806,2,15142,trainPhase
2,2,A3,a,b,False,1112,2,15142,trainPhase
3,2,B1,b,a,False,598,2,15142,trainPhase
4,2,B2,b,a,False,597,2,15142,trainPhase
5,2,B0,b,a,False,510,2,15142,trainPhase
6,2,A0,a,a,True,408,2,15142,trainPhase
7,2,B3,b,b,True,579,2,15142,trainPhase
0,3,A2,a,a,True,1328,2,15142,trainPhase
1,3,B0,b,b,True,571,2,15142,trainPhase
2,3,B3,b,a,False,448,2,15142,trainPhase
3,3,A1,a,b,False,481,2,15142,trainPhase
4,3,A3,a,b,False,440,2,15142,trainPhase
5,3,B1,b,a,False,405,2,15142,trainPhase
6,3,B2,b,a,False,401,2,15142,trainPhase
7,3,A0,a,a,True,444,2,15142,trainPhase
0,4,B3,b,b,True,535,2,15142,trainPhase
1,4,A3,a,a,True,575,2,15142,trainPhase
2,4,A2,a,b,False,1376,2,15142,trainPhase
3,4,B1,b,a,False,444,2,15142,trainPhase
4,4,B2,b,b,True,428,2,15142,trainPhase
5,4,A0,a,a,True,431,2,15142,trainPhase
6,4,B0,b,a,False,406,2,15142,trainPhase
7,4,A1,a,b,False,874,2,15142,trainPhase
0,5,A3,a,a,True,401,2,15142,trainPhase
1,5,A2,a,a,True,373,2,15142,trainPhase
2,5,A1,a,a,True,378,2,15142,trainPhase
3,5,B1,b,a,False,351,2,15142,trainPhase
4,5,B0,b,b,True,390,2,15142,trainPhase
5,5,B2,b,a,False,512,2,15142,trainPhase
6,5,A0,a,b,False,366,2,15142,trainPhase
7,5,B3,b,a,False,639,2,15142,trainPhase
0,6,A1,a,a,True,408,2,15142,trainPhase
1,6,B1,b,b,True,356,2,15142,trainPhase
2,6,B3,b,a,False,425,2,15142,trainPhase
3,6,A2,a,b,False,375,2,15142,trainPhase
4,6,B2,b,a,False,382,2,15142,trainPhase
5,6,A3,a,b,False,371,2,15142,trainPhase
6,6,B0,b,a,False,694,2,15142,trainPhase
7,6,A0,a,a,True,872,2,15142,trainPhase
0,7,B1,b,a,False,413,2,15142,trainPhase
1,7,A3,a,b,False,1033,2,15142,trainPhase
2,7,A0,a,a,True,1368,2,15142,trainPhase
3,7,A1,a,a,True,1227,2,15142,trainPhase
4,7,B3,b,b,True,1283,2,15142,trainPhase
5,7,A2,a,b,False,930,2,15142,trainPhase
6,7,B0,b,b,True,1351,2,15142,trainPhase
7,7,B2,b,a,False,1605,2,15142,trainPhase
0,8,A2,a,a,True,863,2,15142,trainPhase
1,8,B1,b,a,False,929,2,15142,trainPhase
2,8,A0,a,a,True,830,2,15142,trainPhase
3,8,B3,b,a,False,670,2,15142,trainPhase
4,8,A1,a,b,False,445,2,15142,trainPhase
5,8,A3,a,a,True,3133,2,15142,trainPhase
6,8,B0,b,a,False,522,2,15142,trainPhase
7,8,B2,b,a,False,386,2,15142,trainPhase
0,9,B0,b,b,True,541,2,15142,trainPhase
1,9,A2,a,b,False,477,2,15142,trainPhase
2,9,B2,b,a,False,558,2,15142,trainPhase
3,9,B1,b,a,False,444,2,15142,trainPhase
4,9,B3,b,a,False,338,2,15142,trainPhase
5,9,A3,a,a,True,324,2,15142,trainPhase
6,9,A1,a,a,True,373,2,15142,trainPhase
7,9,A0,a,a,True,350,2,15142,trainPhase
0,10,B3,b,a,False,509,2,15142,trainPhase
1,10,A1,a,b,False,2577,2,15142,trainPhase
2,10,B1,b,a,False,1326,2,15142,trainPhase
3,10,A3,a,a,True,1252,2,15142,trainPhase
4,10,B2,b,a,False,511,2,15142,trainPhase
5,10,A2,a,a,True,352,2,15142,trainPhase
6,10,A0,a,a,True,387,2,15142,trainPhase
7,10,B0,b,a,False,385,2,15142,trainPhase
0,11,A3,a,b,False,434,2,15142,trainPhase
1,11,A2,a,a,True,822,2,15142,trainPhase
2,11,B1,b,a,False,631,2,15142,trainPhase
3,11,B2,b,b,True,396,2,15142,trainPhase
4,11,A1,a,a,True,507,2,15142,trainPhase
5,11,B0,b,a,False,429,2,15142,trainPhase
6,11,A0,a,b,False,363,2,15142,trainPhase
7,11,B3,b,a,False,412,2,15142,trainPhase
0,12,B2,b,b,True,496,2,15142,trainPhase
1,12,A0,a,a,True,397,2,15142,trainPhase
2,12,A2,a,b,False,386,2,15142,trainPhase
3,12,B3,b,a,False,644,2,15142,trainPhase
4,12,A1,a,b,False,1882,2,15142,trainPhase
5,12,A3,a,a,True,1078,2,15142,trainPhase
6,12,B0,b,a,False,361,2,15142,trainPhase
7,12,B1,b,b,True,513,2,15142,trainPhase
0,13,B1,b,b,True,384,2,15142,trainPhase
1,13,A2,a,b,False,310,2,15142,trainPhase
2,13,B3,b,a,False,367,2,15142,trainPhase
3,13,A1,a,a,True,415,2,15142,trainPhase
4,13,A3,a,a,True,602,2,15142,trainPhase
5,13,B0,b,a,False,362,2,15142,trainPhase
6,13,B2,b,b,True,330,2,15142,trainPhase
7,13,A0,a,a,True,364,2,15142,trainPhase
0,14,A0,a,b,False,319,2,15142,trainPhase
1,14,A2,a,a,True,328,2,15142,trainPhase
2,14,A3,a,a,True,351,2,15142,trainPhase
3,14,B1,b,a,False,311,2,15142,trainPhase
4,14,A1,a,a,True,242,2,15142,trainPhase
5,14,B3,b,a,False,220,2,15142,trainPhase
6,14,B2,b,a,False,194,2,15142,trainPhase
7,14,B0,b,b,True,542,2,15142,trainPhase
0,0,A2,a,a,True,3424,2,15147,trainPhase
1,0,A1,a,a,True,2011,2,15147,trainPhase
2,0,B0,b,a,False,2006,2,15147,trainPhase
3,0,A3,a,a,True,1446,2,15147,trainPhase
4,0,A0,a,a,True,1398,2,15147,trainPhase
5,0,B3,b,a,False,1070,2,15147,trainPhase
6,0,B1,b,a,False,4567,2,15147,trainPhase
7,0,B2,b,a,False,5690,2,15147,trainPhase
0,1,A0,a,b,False,4317,2,15147,trainPhase
1,1,B1,b,b,True,1557,2,15147,trainPhase
2,1,A1,a,b,False,1030,2,15147,trainPhase
3,1,A3,a,a,True,1526,2,15147,trainPhase
4,1,B3,b,a,False,2331,2,15147,trainPhase
5,1,A2,a,a,True,3463,2,15147,trainPhase
6,1,B0,b,b,True,1038,2,15147,trainPhase
7,1,B2,b,b,True,1301,2,15147,trainPhase
0,2,B2,b,b,True,1220,2,15147,trainPhase
1,2,B3,b,b,True,1381,2,15147,trainPhase
2,2,B1,b,a,False,2869,2,15147,trainPhase
3,2,A2,a,a,True,926,2,15147,trainPhase
4,2,B0,b,b,True,1134,2,15147,trainPhase
5,2,A1,a,b,False,1007,2,15147,trainPhase
6,2,A0,a,a,True,3217,2,15147,trainPhase
7,2,A3,a,a,True,1470,2,15147,trainPhase
0,3,A0,a,a,True,2276,2,15147,trainPhase
1,3,B2,b,a,False,2488,2,15147,trainPhase
2,3,B0,b,b,True,1270,2,15147,trainPhase
3,3,A3,a,a,True,2686,2,15147,trainPhase
4,3,A2,a,a,True,1812,2,15147,trainPhase
5,3,B1,b,a,False,1824,2,15147,trainPhase
6,3,B3,b,b,True,1744,2,15147,trainPhase
7,3,A1,a,b,False,835,2,15147,trainPhase
0,4,A0,a,a,True,3127,2,15147,trainPhase
1,4,A2,a,a,True,1233,2,15147,trainPhase
2,4,A1,a,b,False,1180,2,15147,trainPhase
3,4,B0,b,b,True,1493,2,15147,trainPhase
4,4,A3,a,a,True,1085,2,15147,trainPhase
5,4,B2,b,b,True,2021,2,15147,trainPhase
6,4,B3,b,b,True,1143,2,15147,trainPhase
7,4,B1,b,a,False,2148,2,15147,trainPhase
0,5,B1,b,a,False,1191,2,15147,trainPhase
1,5,A2,a,a,True,871,2,15147,trainPhase
2,5,B0,b,b,True,1480,2,15147,trainPhase
3,5,A3,a,a,True,1510,2,15147,trainPhase
4,5,B3,b,b,True,3088,2,15147,trainPhase
5,5,B2,b,b,True,1326,2,15147,trainPhase
6,5,A1,a,a,True,2005,2,15147,trainPhase
7,5,A0,a,a,True,920,2,15147,trainPhase
0,6,A0,a,a,True,828,2,15147,trainPhase
1,6,B3,b,b,True,1260,2,15147,trainPhase
2,6,A1,a,a,True,1558,2,15147,trainPhase
3,6,B2,b,b,True,1642,2,15147,trainPhase
4,6,A2,a,a,True,901,2,15147,trainPhase
5,6,B1,b,b,True,3209,2,15147,trainPhase
6,6,B0,b,b,True,1381,2,15147,trainPhase
7,6,A3,a,a,True,1349,2,15147,trainPhase
0,7,B2,b,b,True,1254,2,15147,trainPhase
0,0,A0,a,b,False,1945,2,15152,trainPhase
1,0,B3,b,b,True,1065,2,15152,trainPhase
2,0,A2,a,a,True,2203,2,15152,trainPhase
3,0,B2,b,b,True,1151,2,15152,trainPhase
4,0,A3,a,b,False,874,2,15152,trainPhase
5,0,A1,a,b,False,995,2,15152,trainPhase
6,0,B1,b,a,False,1359,2,15152,trainPhase
7,0,B0,b,b,True,2130,2,15152,trainPhase
0,1,B2,b,b,True,1449,2,15152,trainPhase
1,1,B0,b,a,False,1703,2,15152,trainPhase
2,1,A1,a,b,False,1083,2,15152,trainPhase
3,1,A3,a,a,True,2162,2,15152,trainPhase
4,1,A2,a,a,True,1288,2,15152,trainPhase
5,1,A0,a,a,True,1366,2,15152,trainPhase
6,1,B3,b,b,True,922,2,15152,trainPhase
7,1,B1,b,b,True,960,2,15152,trainPhase
0,2,B2,b,b,True,1315,2,15152,trainPhase
1,2,B1,b,b,True,965,2,15152,trainPhase
2,2,A3,a,a,True,990,2,15152,trainPhase
3,2,B0,b,b,True,937,2,15152,trainPhase
4,2,A1,a,a,True,1740,2,15152,trainPhase
5,2,A0,a,a,True,681,2,15152,trainPhase
6,2,B3,b,b,True,1086,2,15152,trainPhase
7,2,A2,a,a,True,794,2,15152,trainPhase
0,3,B1,b,a,False,1149,2,15152,trainPhase
1,3,B3,b,a,False,871,2,15152,trainPhase
2,3,A1,a,a,True,928,2,15152,trainPhase
3,3,A0,a,a,True,1129,2,15152,trainPhase
4,3,B2,b,b,True,1588,2,15152,trainPhase
5,3,B0,b,b,True,891,2,15152,trainPhase
6,3,A3,a,a,True,871,2,15152,trainPhase
7,3,A2,a,a,True,742,2,15152,trainPhase
0,4,B2,b,a,False,1386,2,15152,trainPhase
1,4,A2,a,a,True,789,2,15152,trainPhase
2,4,A1,a,b,False,875,2,15152,trainPhase
3,4,B0,b,b,True,1810,2,15152,trainPhase
4,4,A0,a,a,True,925,2,15152,trainPhase
5,4,A3,a,a,True,796,2,15152,trainPhase
6,4,B1,b,b,True,1336,2,15152,trainPhase
7,4,B3,b,b,True,1438,2,15152,trainPhase
0,5,A3,a,a,True,1309,2,15152,trainPhase
1,5,A0,a,b,False,1134,2,15152,trainPhase
2,5,B2,b,b,True,1617,2,15152,trainPhase
3,5,B3,b,a,False,1687,2,15152,trainPhase
4,5,B1,b,b,True,851,2,15152,trainPhase
5,5,B0,b,b,True,715,2,15152,trainPhase
6,5,A2,a,a,True,3393,2,15152,trainPhase
7,5,A1,a,b,False,938,2,15152,trainPhase
0,6,A2,a,a,True,1695,2,15152,trainPhase
1,6,A0,a,a,True,932,2,15152,trainPhase
2,6,B1,b,a,False,781,2,15152,trainPhase
3,6,A3,a,a,True,740,2,15152,trainPhase
4,6,B0,b,b,True,1196,2,15152,trainPhase
5,6,B3,b,a,False,865,2,15152,trainPhase
6,6,B2,b,a,False,1241,2,15152,trainPhase
7,6,A1,a,b,False,1241,2,15152,trainPhase
0,7,A1,a,b,False,815,2,15152,trainPhase
1,7,B1,b,a,False,1331,2,15152,trainPhase
2,7,A2,a,a,True,815,2,15152,trainPhase
3,7,B2,b,b,True,1436,2,15152,trainPhase
4,7,A0,a,a,True,1261,2,15152,trainPhase
5,7,B3,b,b,True,1573,2,15152,trainPhase
6,7,A3,a,a,True,1078,2,15152,trainPhase
7,7,B0,b,a,False,936,2,15152,trainPhase
0,8,A1,a,a,True,795,2,15152,trainPhase
1,8,B0,b,b,True,1693,2,15152,trainPhase
2,8,A0,a,b,False,1240,2,15152,trainPhase
3,8,B2,b,b,True,1041,2,15152,trainPhase
4,8,B3,b,b,True,1096,2,15152,trainPhase
5,8,A3,a,a,True,1021,2,15152,trainPhase
6,8,A2,a,a,True,805,2,15152,trainPhase
7,8,B1,b,b,True,2217,2,15152,trainPhase
0,9,A1,a,b,False,984,2,15152,trainPhase
1,9,A2,a,a,True,1076,2,15152,trainPhase
2,9,B2,b,b,True,1033,2,15152,trainPhase
3,9,A3,a,a,True,919,2,15152,trainPhase
4,9,A0,a,a,True,1177,2,15152,trainPhase
5,9,B0,b,b,True,1063,2,15152,trainPhase
6,9,B3,b,a,False,960,2,15152,trainPhase
7,9,B1,b,a,False,807,2,15152,trainPhase
0,10,B0,b,b,True,1040,2,15152,trainPhase
1,10,B3,b,b,True,860,2,15152,trainPhase
2,10,A3,a,a,True,951,2,15152,trainPhase
3,10,A2,a,a,True,1075,2,15152,trainPhase
4,10,B1,b,b,True,1427,2,15152,trainPhase
5,10,B2,b,b,True,1285,2,15152,trainPhase
6,10,A0,a,a,True,1141,2,15152,trainPhase
7,10,A1,a,b,False,3073,2,15152,trainPhase
0,11,B0,b,b,True,1831,2,15152,trainPhase
1,11,B1,b,a,False,1077,2,15152,trainPhase
2,11,B2,b,a,False,1709,2,15152,trainPhase
3,11,B3,b,b,True,1101,2,15152,trainPhase
4,11,A1,a,b,False,842,2,15152,trainPhase
5,11,A3,a,a,True,1230,2,15152,trainPhase
6,11,A2,a,a,True,927,2,15152,trainPhase
7,11,A0,a,a,True,822,2,15152,trainPhase
0,12,A2,a,a,True,740,2,15152,trainPhase
1,12,B0,b,b,True,906,2,15152,trainPhase
2,12,B2,b,b,True,799,2,15152,trainPhase
3,12,B3,b,b,True,725,2,15152,trainPhase
4,12,A0,a,a,True,925,2,15152,trainPhase
5,12,B1,b,a,False,853,2,15152,trainPhase
6,12,A1,a,a,True,1880,2,15152,trainPhase
7,12,A3,a,a,True,1045,2,15152,trainPhase
0,13,B2,b,b,True,1158,2,15152,trainPhase
1,13,A3,a,a,True,833,2,15152,trainPhase
2,13,A2,a,a,True,1531,2,15152,trainPhase
3,13,B1,b,b,True,1165,2,15152,trainPhase
4,13,A1,a,a,True,952,2,15152,trainPhase
5,13,A0,a,a,True,802,2,15152,trainPhase
6,13,B0,b,b,True,913,2,15152,trainPhase
7,13,B3,b,b,True,2001,2,15152,trainPhase
0,14,B0,b,b,True,2612,2,15152,trainPhase
1,14,A2,a,a,True,1208,2,15152,trainPhase
2,14,B3,b,a,False,1127,2,15152,trainPhase
3,14,A0,a,a,True,994,2,15152,trainPhase
4,14,A1,a,b,False,1271,2,15152,trainPhase
5,14,B1,b,a,False,885,2,15152,trainPhase
6,14,A3,a,a,True,1114,2,15152,trainPhase
7,14,B2,b,b,True,1101,2,15152,trainPhase
0,0,B2,b,a,False,2244,2,15157,trainPhase
1,0,A0,a,a,True,4511,2,15157,trainPhase
2,0,A1,a,b,False,4863,2,15157,trainPhase
3,0,B1,b,a,False,1839,2,15157,trainPhase
4,0,B0,b,b,True,3475,2,15157,trainPhase
5,0,A2,a,a,True,2054,2,15157,trainPhase
6,0,B3,b,b,True,1918,2,15157,trainPhase
7,0,A3,a,a,True,1348,2,15157,trainPhase
0,1,A1,a,b,False,1046,2,15157,trainPhase
1,1,A3,a,a,True,1479,2,15157,trainPhase
2,1,B3,b,b,True,1889,2,15157,trainPhase
3,1,B0,b,b,True,1118,2,15157,trainPhase
4,1,B1,b,b,True,1303,2,15157,trainPhase
5,1,B2,b,b,True,1445,2,15157,trainPhase
6,1,A0,a,b,False,1618,2,15157,trainPhase
7,1,A2,a,a,True,1844,2,15157,trainPhase
0,2,B3,b,b,True,3379,2,15157,trainPhase
1,2,A1,a,a,True,1693,2,15157,trainPhase
2,2,B2,b,b,True,1749,2,15157,trainPhase
3,2,A2,a,a,True,1240,2,15157,trainPhase
4,2,B0,b,b,True,1230,2,15157,trainPhase
5,2,A0,a,b,False,2987,2,15157,trainPhase
6,2,A3,a,a,True,963,2,15157,trainPhase
7,2,B1,b,a,False,1238,2,15157,trainPhase
0,3,A3,a,a,True,2555,2,15157,trainPhase
1,3,B0,b,b,True,2212,2,15157,trainPhase
2,3,A2,a,a,True,1372,2,15157,trainPhase
3,3,A0,a,a,True,3227,2,15157,trainPhase
4,3,B2,b,a,False,1573,2,15157,trainPhase
5,3,B3,b,b,True,1504,2,15157,trainPhase
6,3,B1,b,b,True,5128,2,15157,trainPhase
7,3,A1,a,b,False,2351,2,15157,trainPhase
0,4,B2,b,b,True,3308,2,15157,trainPhase
1,4,B0,b,b,True,2273,2,15157,trainPhase
2,4,B1,b,b,True,2348,2,15157,trainPhase
3,4,B3,b,a,False,1834,2,15157,trainPhase
4,4,A2,a,a,True,1234,2,15157,trainPhase
5,4,A1,a,b,False,2944,2,15157,trainPhase
6,4,A0,a,b,False,3820,2,15157,trainPhase
7,4,A3,a,a,True,1578,2,15157,trainPhase
0,5,B3,b,a,False,3122,2,15157,trainPhase
1,5,A3,a,a,True,2045,2,15157,trainPhase
2,5,B2,b,b,True,3998,2,15157,trainPhase
3,5,A1,a,b,False,1339,2,15157,trainPhase
4,5,B1,b,b,True,2566,2,15157,trainPhase
5,5,A0,a,b,False,5755,2,15157,trainPhase
6,5,A2,a,a,True,1780,2,15157,trainPhase
7,5,B0,b,b,True,2557,2,15157,trainPhase
0,6,B2,b,a,False,2950,2,15157,trainPhase
1,6,A2,a,a,True,1275,2,15157,trainPhase
2,6,B0,b,b,True,1724,2,15157,trainPhase
3,6,B3,b,a,False,1934,2,15157,trainPhase
4,6,A0,a,b,False,2629,2,15157,trainPhase
5,6,A3,a,a,True,1501,2,15157,trainPhase
6,6,B1,b,b,True,3931,2,15157,trainPhase
7,6,A1,a,b,False,5863,2,15157,trainPhase
0,7,B1,b,b,True,5438,2,15157,trainPhase
1,7,B2,b,b,True,2330,2,15157,trainPhase
2,7,A2,a,a,True,1538,2,15157,trainPhase
3,7,A1,a,b,False,2057,2,15157,trainPhase
4,7,A3,a,a,True,3676,2,15157,trainPhase
5,7,A0,a,b,False,3840,2,15157,trainPhase
6,7,B0,b,b,True,2211,2,15157,trainPhase
7,7,B3,b,b,True,2410,2,15157,trainPhase
0,8,A0,a,a,True,2041,2,15157,trainPhase
1,8,A2,a,a,True,1712,2,15157,trainPhase
2,8,B0,b,b,True,2103,2,15157,trainPhase
3,8,B2,b,b,True,3992,2,15157,trainPhase
4,8,B1,b,b,True,3880,2,15157,trainPhase
5,8,A1,a,b,False,1990,2,15157,trainPhase
6,8,A3,a,a,True,940,2,15157,trainPhase
7,8,B3,b,b,True,2628,2,15157,trainPhase
0,9,A2,a,a,True,1310,2,15157,trainPhase
1,9,A1,a,a,True,1390,2,15157,trainPhase
2,9,B2,b,b,True,2255,2,15157,trainPhase
3,9,B3,b,b,True,2052,2,15157,trainPhase
4,9,A3,a,a,True,1466,2,15157,trainPhase
5,9,B1,b,a,False,5193,2,15157,trainPhase
6,9,A0,a,a,True,1290,2,15157,trainPhase
7,9,B0,b,b,True,1169,2,15157,trainPhase
0,10,B1,b,b,True,2201,2,15157,trainPhase
1,10,A2,a,a,True,1387,2,15157,trainPhase
2,10,B3,b,a,False,2131,2,15157,trainPhase
3,10,B0,b,b,True,5930,2,15157,trainPhase
4,10,A0,a,a,True,2933,2,15157,trainPhase
5,10,A3,a,a,True,1336,2,15157,trainPhase
6,10,B2,b,b,True,2134,2,15157,trainPhase
7,10,A1,a,a,True,1571,2,15157,trainPhase
0,11,B3,b,b,True,1341,2,15157,trainPhase
1,11,A3,a,a,True,1341,2,15157,trainPhase
2,11,A0,a,a,True,2246,2,15157,trainPhase
3,11,A2,a,a,True,1770,2,15157,trainPhase
4,11,A1,a,a,True,4586,2,15157,trainPhase
5,11,B0,b,b,True,4762,2,15157,trainPhase
6,11,B2,b,b,True,2449,2,15157,trainPhase
7,11,B1,b,b,True,2598,2,15157,trainPhase
0,12,B0,b,b,True,1737,2,15157,trainPhase
1,12,A1,a,a,True,2200,2,15157,trainPhase
2,12,A0,a,a,True,2040,2,15157,trainPhase
0,0,A2,a,a,True,2083,2,15162 ,trainPhase
1,0,B2,b,a,False,1165,2,15162 ,trainPhase
2,0,A1,a,b,False,2998,2,15162 ,trainPhase
3,0,A0,a,a,True,2135,2,15162 ,trainPhase
4,0,B1,b,b,True,1717,2,15162 ,trainPhase
5,0,B3,b,a,False,2133,2,15162 ,trainPhase
6,0,B0,b,b,True,3354,2,15162 ,trainPhase
7,0,A3,a,b,False,2486,2,15162 ,trainPhase
0,1,A1,a,a,True,1640,2,15162 ,trainPhase
1,1,B2,b,a,False,2343,2,15162 ,trainPhase
2,1,B3,b,b,True,2213,2,15162 ,trainPhase
3,1,B1,b,b,True,1469,2,15162 ,trainPhase
4,1,B0,b,b,True,1033,2,15162 ,trainPhase
5,1,A3,a,a,True,1528,2,15162 ,trainPhase
6,1,A0,a,a,True,1323,2,15162 ,trainPhase
7,1,A2,a,a,True,951,2,15162 ,trainPhase
0,2,B3,b,b,True,1205,2,15162 ,trainPhase
1,2,A3,a,a,True,989,2,15162 ,trainPhase
2,2,A1,a,a,True,2796,2,15162 ,trainPhase
3,2,A2,a,a,True,1621,2,15162 ,trainPhase
4,2,B0,b,b,True,3733,2,15162 ,trainPhase
5,2,A0,a,b,False,2370,2,15162 ,trainPhase
6,2,B1,b,a,False,2020,2,15162 ,trainPhase
7,2,B2,b,a,False,1429,2,15162 ,trainPhase
0,3,A2,a,b,False,1718,2,15162 ,trainPhase
1,3,B3,b,b,True,1566,2,15162 ,trainPhase
2,3,B1,b,a,False,1702,2,15162 ,trainPhase
3,3,B0,b,b,True,1238,2,15162 ,trainPhase
4,3,A3,a,a,True,1929,2,15162 ,trainPhase
5,3,A0,a,b,False,1229,2,15162 ,trainPhase
6,3,A1,a,a,True,1175,2,15162 ,trainPhase
7,3,B2,b,b,True,1558,2,15162 ,trainPhase
0,4,A2,a,b,False,1175,2,15162 ,trainPhase
1,4,B3,b,b,True,2142,2,15162 ,trainPhase
2,4,A3,a,a,True,1022,2,15162 ,trainPhase
3,4,A0,a,a,True,1038,2,15162 ,trainPhase
4,4,B1,b,a,False,1373,2,15162 ,trainPhase
5,4,A1,a,a,True,1477,2,15162 ,trainPhase
6,4,B2,b,a,False,1222,2,15162 ,trainPhase
7,4,B0,b,b,True,2269,2,15162 ,trainPhase
0,5,B3,b,a,False,2781,2,15162 ,trainPhase
1,5,B0,b,b,True,1293,2,15162 ,trainPhase
2,5,A0,a,b,False,1238,2,15162 ,trainPhase
3,5,B1,b,b,True,1533,2,15162 ,trainPhase
4,5,A2,a,a,True,1173,2,15162 ,trainPhase
5,5,A1,a,a,True,805,2,15162 ,trainPhase
6,5,B2,b,a,False,3902,2,15162 ,trainPhase
7,5,A3,a,b,False,1454,2,15162 ,trainPhase
0,6,B3,b,a,False,1649,2,15162 ,trainPhase
1,6,B2,b,b,True,2566,2,15162 ,trainPhase
2,6,A3,a,a,True,1373,2,15162 ,trainPhase
3,6,A0,a,a,True,1173,2,15162 ,trainPhase
4,6,B0,b,b,True,1477,2,15162 ,trainPhase
5,6,B1,b,a,False,565,2,15162 ,trainPhase
6,6,A2,a,b,False,1438,2,15162 ,trainPhase
7,6,A1,a,a,True,855,2,15162 ,trainPhase
0,7,B1,b,a,False,2030,2,15162 ,trainPhase
1,7,A2,a,a,True,989,2,15162 ,trainPhase
2,7,A1,a,a,True,774,2,15162 ,trainPhase
3,7,B2,b,b,True,1326,2,15162 ,trainPhase
4,7,A3,a,a,True,1662,2,15162 ,trainPhase
5,7,A0,a,a,True,1646,2,15162 ,trainPhase
6,7,B0,b,b,True,1318,2,15162 ,trainPhase
7,7,B3,b,b,True,1628,2,15162 ,trainPhase
0,8,B2,b,b,True,1430,2,15162 ,trainPhase
1,8,B1,b,b,True,1613,2,15162 ,trainPhase
2,8,A0,a,a,True,1973,2,15162 ,trainPhase
3,8,A2,a,b,False,2085,2,15162 ,trainPhase
4,8,A1,a,a,True,829,2,15162 ,trainPhase
5,8,B0,b,b,True,3349,2,15162 ,trainPhase
6,8,B3,b,b,True,1190,2,15162 ,trainPhase
7,8,A3,a,a,True,1158,2,15162 ,trainPhase
0,9,B1,b,b,True,2253,2,15162 ,trainPhase
1,9,A1,a,a,True,638,2,15162 ,trainPhase
2,9,A3,a,a,True,2086,2,15162 ,trainPhase
3,9,A0,a,b,False,1446,2,15162 ,trainPhase
4,9,B2,b,b,True,2214,2,15162 ,trainPhase
5,9,B0,b,a,False,710,2,15162 ,trainPhase
6,9,B3,b,b,True,2174,2,15162 ,trainPhase
7,9,A2,a,a,True,1805,2,15162 ,trainPhase
0,10,B1,b,b,True,1445,2,15162 ,trainPhase
1,10,A3,a,a,True,1134,2,15162 ,trainPhase
2,10,A2,a,b,False,1222,2,15162 ,trainPhase
3,10,B2,b,b,True,3998,2,15162 ,trainPhase
4,10,A1,a,a,True,1244,2,15162 ,trainPhase
5,10,B0,b,b,True,2108,2,15162 ,trainPhase
6,10,B3,b,a,False,1510,2,15162 ,trainPhase
7,10,A0,a,a,True,2143,2,15162 ,trainPhase
0,11,B1,b,b,True,1566,2,15162 ,trainPhase
1,11,A1,a,a,True,710,2,15162 ,trainPhase
2,11,B0,b,a,False,2198,2,15162 ,trainPhase
3,11,A3,a,b,False,1094,2,15162 ,trainPhase
4,11,A2,a,a,True,1148,2,15162 ,trainPhase
5,11,B2,b,b,True,1101,2,15162 ,trainPhase
6,11,B3,b,b,True,2582,2,15162 ,trainPhase
7,11,A0,a,a,True,1037,2,15162 ,trainPhase
0,12,A1,a,a,True,773,2,15162 ,trainPhase
1,12,A0,a,a,True,1237,2,15162 ,trainPhase
2,12,B2,b,b,True,1070,2,15162 ,trainPhase
3,12,B1,b,b,True,1269,2,15162 ,trainPhase
4,12,B3,b,b,True,1340,2,15162 ,trainPhase
5,12,B0,b,a,False,1302,2,15162 ,trainPhase
6,12,A3,a,b,False,1358,2,15162 ,trainPhase
7,12,A2,a,b,False,1525,2,15162 ,trainPhase
0,13,B1,b,a,False,1038,2,15162 ,trainPhase
1,13,B2,b,b,True,1285,2,15162 ,trainPhase
2,13,A1,a,a,True,709,2,15162 ,trainPhase
3,13,B3,b,b,True,1005,2,15162 ,trainPhase
4,13,A0,a,a,True,998,2,15162 ,trainPhase
5,13,A2,a,b,False,1015,2,15162 ,trainPhase
6,13,A3,a,a,True,1086,2,15162 ,trainPhase
7,13,B0,b,b,True,1565,2,15162 ,trainPhase
0,14,B0,b,b,True,1309,2,15162 ,trainPhase
1,14,A1,a,a,True,725,2,15162 ,trainPhase
2,14,A3,a,b,False,1046,2,15162 ,trainPhase
3,14,B2,b,a,False,1228,2,15162 ,trainPhase
4,14,B1,b,a,False,1148,2,15162 ,trainPhase
5,14,A2,a,b,False,1614,2,15162 ,trainPhase
6,14,A0,a,a,True,1093,2,15162 ,trainPhase
7,14,B3,b,b,True,2326,2,15162 ,trainPhase
0,0,B2,b,a,False,2747,2,15189,trainPhase
1,0,A2,a,b,False,1693,2,15189,trainPhase
2,0,B0,b,b,True,3147,2,15189,trainPhase
3,0,B3,b,a,False,1846,2,15189,trainPhase
4,0,A3,a,a,True,2500,2,15189,trainPhase
5,0,A1,a,b,False,2132,2,15189,trainPhase
6,0,A0,a,b,False,4678,2,15189,trainPhase
7,0,B1,b,b,True,2207,2,15189,trainPhase
0,1,B1,b,b,True,1160,2,15189,trainPhase
1,1,B2,b,a,False,1094,2,15189,trainPhase
2,1,A3,a,b,False,1624,2,15189,trainPhase
3,1,A2,a,a,True,2313,2,15189,trainPhase
4,1,B3,b,a,False,1402,2,15189,trainPhase
5,1,A1,a,b,False,1269,2,15189,trainPhase
6,1,B0,b,b,True,2221,2,15189,trainPhase
7,1,A0,a,b,False,1176,2,15189,trainPhase
0,2,B0,b,b,True,4574,2,15189,trainPhase
1,2,A2,a,b,False,1593,2,15189,trainPhase
2,2,B2,b,a,False,3230,2,15189,trainPhase
3,2,B1,b,b,True,7720,2,15189,trainPhase
4,2,B3,b,a,False,1201,2,15189,trainPhase
5,2,A3,a,a,True,2883,2,15189,trainPhase
6,2,A1,a,b,False,1124,2,15189,trainPhase
7,2,A0,a,a,True,2801,2,15189,trainPhase
0,3,A1,a,a,True,1024,2,15189,trainPhase
1,3,B1,b,b,True,1342,2,15189,trainPhase
2,3,B2,b,b,True,1223,2,15189,trainPhase
3,3,B3,b,a,False,950,2,15189,trainPhase
4,3,B0,b,b,True,2580,2,15189,trainPhase
5,3,A3,a,b,False,3841,2,15189,trainPhase
6,3,A0,a,a,True,2431,2,15189,trainPhase
7,3,A2,a,b,False,1501,2,15189,trainPhase
0,4,B0,b,b,True,3344,2,15189,trainPhase
1,4,A2,a,a,True,1464,2,15189,trainPhase
2,4,B1,b,b,True,1656,2,15189,trainPhase
3,4,B3,b,a,False,2311,2,15189,trainPhase
4,4,A0,a,b,False,1151,2,15189,trainPhase
5,4,A3,a,b,False,5278,2,15189,trainPhase
6,4,B2,b,b,True,1787,2,15189,trainPhase
7,4,A1,a,a,True,1573,2,15189,trainPhase
0,5,A3,a,b,False,6518,2,15189,trainPhase
1,5,B0,b,b,True,2426,2,15189,trainPhase
2,5,B3,b,a,False,1382,2,15189,trainPhase
3,5,A1,a,a,True,1350,2,15189,trainPhase
4,5,A0,a,b,False,1018,2,15189,trainPhase
5,5,B2,b,b,True,1655,2,15189,trainPhase
6,5,B1,b,a,False,1697,2,15189,trainPhase
7,5,A2,a,a,True,2365,2,15189,trainPhase
0,6,B3,b,b,True,1383,2,15189,trainPhase
1,6,A1,a,a,True,1121,2,15189,trainPhase
2,6,B2,b,b,True,1376,2,15189,trainPhase
3,6,B0,b,a,False,1099,2,15189,trainPhase
4,6,A0,a,a,True,1416,2,15189,trainPhase
5,6,A3,a,b,False,1582,2,15189,trainPhase
6,6,B1,b,b,True,2920,2,15189,trainPhase
7,6,A2,a,a,True,1526,2,15189,trainPhase
0,7,B1,b,b,True,3742,2,15189,trainPhase
1,7,B0,b,a,False,1323,2,15189,trainPhase
2,7,B2,b,b,True,1790,2,15189,trainPhase
3,7,A3,a,a,True,913,2,15189,trainPhase
4,7,A2,a,a,True,1001,2,15189,trainPhase
5,7,A0,a,a,True,1906,2,15189,trainPhase
6,7,B3,b,b,True,895,2,15189,trainPhase
7,7,A1,a,b,False,1229,2,15189,trainPhase
0,8,A2,a,a,True,2150,2,15189,trainPhase
1,8,A0,a,a,True,1802,2,15189,trainPhase
2,8,A1,a,a,True,1276,2,15189,trainPhase
3,8,B0,b,b,True,1022,2,15189,trainPhase
4,8,B2,b,b,True,991,2,15189,trainPhase
5,8,B3,b,b,True,1271,2,15189,trainPhase
6,8,A3,a,a,True,2302,2,15189,trainPhase
7,8,B1,b,a,False,1429,2,15189,trainPhase
0,9,A2,a,a,True,1230,2,15189,trainPhase
1,9,B2,b,b,True,1047,2,15189,trainPhase
2,9,B1,b,b,True,1289,2,15189,trainPhase
3,9,A3,a,a,True,1626,2,15189,trainPhase
4,9,B0,b,b,True,1572,2,15189,trainPhase
5,9,A1,a,a,True,1553,2,15189,trainPhase
6,9,B3,b,b,True,2600,2,15189,trainPhase
7,9,A0,a,a,True,1734,2,15189,trainPhase
0,10,A0,a,a,True,1035,2,15189,trainPhase
1,10,B2,b,b,True,1304,2,15189,trainPhase
2,10,A3,a,a,True,1565,2,15189,trainPhase
3,10,B3,b,b,True,1360,2,15189,trainPhase
4,10,A2,a,a,True,1729,2,15189,trainPhase
5,10,B1,b,a,False,1928,2,15189,trainPhase
6,10,B0,b,b,True,1242,2,15189,trainPhase
7,10,A1,a,a,True,2433,2,15189,trainPhase
0,11,A0,a,a,True,1182,2,15189,trainPhase
1,11,B0,b,b,True,1087,2,15189,trainPhase
2,11,A2,a,a,True,1238,2,15189,trainPhase
3,11,A1,a,a,True,3279,2,15189,trainPhase
4,11,B2,b,b,True,943,2,15189,trainPhase
5,11,A3,a,b,False,980,2,15189,trainPhase
6,11,B3,b,b,True,2734,2,15189,trainPhase
7,11,B1,b,b,True,2284,2,15189,trainPhase
0,12,B0,b,b,True,2730,2,15189,trainPhase
1,12,A0,a,a,True,1079,2,15189,trainPhase
2,12,B2,b,b,True,1115,2,15189,trainPhase
3,12,B1,b,b,True,3270,2,15189,trainPhase
4,12,A2,a,a,True,705,2,15189,trainPhase
5,12,B3,b,b,True,1133,2,15189,trainPhase
6,12,A1,a,a,True,1550,2,15189,trainPhase
7,12,A3,a,a,True,1591,2,15189,trainPhase
0,13,B0,b,b,True,1472,2,15189,trainPhase
1,13,A0,a,a,True,1029,2,15189,trainPhase
2,13,B3,b,b,True,2641,2,15189,trainPhase
3,13,A2,a,a,True,1365,2,15189,trainPhase
4,13,B1,b,b,True,1112,2,15189,trainPhase
5,13,B2,b,b,True,3457,2,15189,trainPhase
0,0,B0,b,a,False,4671,2,15207,trainPhase
1,0,B3,b,b,True,2493,2,15207,trainPhase
2,0,A0,a,b,False,2848,2,15207,trainPhase
3,0,A2,a,b,False,6094,2,15207,trainPhase
4,0,A3,a,b,False,1655,2,15207,trainPhase
5,0,B2,b,a,False,8446,2,15207,trainPhase
6,0,A1,a,a,True,3478,2,15207,trainPhase
7,0,B1,b,b,True,3548,2,15207,trainPhase
0,1,B3,b,a,False,932,2,15207,trainPhase
1,1,A2,a,a,True,6266,2,15207,trainPhase
2,1,A3,a,b,False,1946,2,15207,trainPhase
3,1,B2,b,b,True,831,2,15207,trainPhase
4,1,B1,b,b,True,920,2,15207,trainPhase
5,1,B0,b,b,True,905,2,15207,trainPhase
6,1,A0,a,b,False,2272,2,15207,trainPhase
7,1,A1,a,b,False,4278,2,15207,trainPhase
0,2,B1,b,b,True,1355,2,15207,trainPhase
1,2,A0,a,a,True,2231,2,15207,trainPhase
2,2,A1,a,b,False,4823,2,15207,trainPhase
3,2,B3,b,b,True,1285,2,15207,trainPhase
4,2,A3,a,a,True,1035,2,15207,trainPhase
5,2,B2,b,b,True,4383,2,15207,trainPhase
6,2,B0,b,b,True,999,2,15207,trainPhase
7,2,A2,a,a,True,1989,2,15207,trainPhase
0,3,B3,b,b,True,1890,2,15207,trainPhase
1,3,B0,b,b,True,790,2,15207,trainPhase
2,3,B2,b,b,True,1939,2,15207,trainPhase
3,3,A3,a,a,True,897,2,15207,trainPhase
4,3,A2,a,a,True,2344,2,15207,trainPhase
5,3,A0,a,b,False,879,2,15207,trainPhase
6,3,A1,a,b,False,5853,2,15207,trainPhase
7,3,B1,b,b,True,1445,2,15207,trainPhase
0,4,B1,b,b,True,871,2,15207,trainPhase
1,4,A0,a,b,False,1477,2,15207,trainPhase
2,4,B0,b,b,True,793,2,15207,trainPhase
3,4,A3,a,a,True,1008,2,15207,trainPhase
4,4,A2,a,a,True,885,2,15207,trainPhase
5,4,B3,b,b,True,1369,2,15207,trainPhase
6,4,B2,b,b,True,935,2,15207,trainPhase
7,4,A1,a,b,False,1096,2,15207,trainPhase
0,5,A2,a,a,True,2359,2,15207,trainPhase
1,5,A0,a,b,False,1361,2,15207,trainPhase
2,5,B1,b,b,True,1043,2,15207,trainPhase
3,5,A3,a,a,True,2457,2,15207,trainPhase
4,5,B0,b,b,True,804,2,15207,trainPhase
5,5,B2,b,b,True,1146,2,15207,trainPhase
6,5,A1,a,b,False,878,2,15207,trainPhase
7,5,B3,b,b,True,1988,2,15207,trainPhase
0,6,B0,b,b,True,1096,2,15207,trainPhase
1,6,B2,b,b,True,3603,2,15207,trainPhase
2,6,A0,a,b,False,1035,2,15207,trainPhase
3,6,A3,a,a,True,1148,2,15207,trainPhase
4,6,B3,b,b,True,1148,2,15207,trainPhase
5,6,A1,a,b,False,752,2,15207,trainPhase
6,6,B1,b,b,True,4026,2,15207,trainPhase
7,6,A2,a,a,True,1975,2,15207,trainPhase
0,7,A3,a,a,True,1046,2,15207,trainPhase
1,7,B1,b,b,True,797,2,15207,trainPhase
2,7,A1,a,b,False,798,2,15207,trainPhase
3,7,B0,b,b,True,727,2,15207,trainPhase
4,7,A2,a,a,True,1369,2,15207,trainPhase
5,7,B3,b,b,True,983,2,15207,trainPhase
6,7,A0,a,b,False,1027,2,15207,trainPhase
7,7,B2,b,b,True,899,2,15207,trainPhase
0,8,A1,a,b,False,894,2,15207,trainPhase
1,8,A0,a,b,False,640,2,15207,trainPhase
2,8,B1,b,b,True,1145,2,15207,trainPhase
3,8,A2,a,a,True,1580,2,15207,trainPhase
4,8,B0,b,b,True,1067,2,15207,trainPhase
5,8,B2,b,b,True,1768,2,15207,trainPhase
6,8,B3,b,b,True,3009,2,15207,trainPhase
7,8,A3,a,a,True,2445,2,15207,trainPhase
0,9,A2,a,a,True,1157,2,15207,trainPhase
1,9,A3,a,a,True,808,2,15207,trainPhase
2,9,B1,b,b,True,925,2,15207,trainPhase
3,9,B3,b,b,True,806,2,15207,trainPhase
4,9,B2,b,b,True,685,2,15207,trainPhase
5,9,A1,a,b,False,700,2,15207,trainPhase
6,9,A0,a,b,False,3303,2,15207,trainPhase
7,9,B0,b,b,True,658,2,15207,trainPhase
0,10,B1,b,b,True,1659,2,15207,trainPhase
1,10,B0,b,b,True,680,2,15207,trainPhase
2,10,A3,a,a,True,729,2,15207,trainPhase
3,10,B2,b,b,True,1216,2,15207,trainPhase
4,10,A1,a,b,False,803,2,15207,trainPhase
5,10,A0,a,b,False,1375,2,15207,trainPhase
6,10,A2,a,a,True,794,2,15207,trainPhase
7,10,B3,b,b,True,1054,2,15207,trainPhase
0,11,B2,b,b,True,1054,2,15207,trainPhase
1,11,A1,a,b,False,688,2,15207,trainPhase
2,11,B3,b,b,True,1062,2,15207,trainPhase
3,11,A0,a,b,False,988,2,15207,trainPhase
4,11,A2,a,a,True,1112,2,15207,trainPhase
5,11,B0,b,b,True,917,2,15207,trainPhase
6,11,B1,b,b,True,952,2,15207,trainPhase
7,11,A3,a,a,True,1173,2,15207,trainPhase
0,12,A2,a,a,True,879,2,15207,trainPhase
1,12,A1,a,a,True,1491,2,15207,trainPhase
2,12,A0,a,a,True,1339,2,15207,trainPhase
3,12,B2,b,b,True,1017,2,15207,trainPhase
4,12,B1,b,b,True,1061,2,15207,trainPhase
5,12,B0,b,b,True,781,2,15207,trainPhase
6,12,B3,b,b,True,1183,2,15207,trainPhase
7,12,A3,a,a,True,1007,2,15207,trainPhase
0,13,B1,b,a,False,2334,2,15207,trainPhase
1,13,B3,b,b,True,4254,2,15207,trainPhase
2,13,A2,a,a,True,762,2,15207,trainPhase
3,13,A1,a,a,True,1203,2,15207,trainPhase
4,13,A3,a,a,True,1576,2,15207,trainPhase
5,13,B0,b,b,True,1338,2,15207,trainPhase
6,13,A0,a,a,True,1636,2,15207,trainPhase
7,13,B2,b,b,True,2387,2,15207,trainPhase
0,14,B2,b,b,True,1276,2,15207,trainPhase
1,14,A2,a,a,True,845,2,15207,trainPhase
2,14,A1,a,a,True,1571,2,15207,trainPhase
3,14,B0,b,b,True,1034,2,15207,trainPhase
4,14,B3,b,b,True,6652,2,15207,trainPhase
5,14,A0,a,a,True,1110,2,15207,trainPhase
6,14,B1,b,b,True,973,2,15207,trainPhase
7,14,A3,a,a,True,888,2,15207,trainPhase
0,0,B3,b,a,False,2427,2,15212,trainPhase
1,0,B1,b,b,True,1689,2,15212,trainPhase
2,0,B0,b,b,True,1118,2,15212,trainPhase
3,0,A0,a,b,False,999,2,15212,trainPhase
4,0,A1,a,b,False,1176,2,15212,trainPhase
5,0,A3,a,b,False,822,2,15212,trainPhase
6,0,B2,b,b,True,1834,2,15212,trainPhase
7,0,A2,a,a,True,959,2,15212,trainPhase
0,1,A0,a,a,True,834,2,15212,trainPhase
1,1,B2,b,b,True,2978,2,15212,trainPhase
2,1,A2,a,a,True,777,2,15212,trainPhase
3,1,B3,b,b,True,954,2,15212,trainPhase
4,1,B1,b,a,False,865,2,15212,trainPhase
