trial,block,stimId,category,response,accuracy,rt,condition,id,phase
0,0,A2,a,a,True,2295,1,14347,testPhase
1,0,T0,t,a,False,1485,1,14347,testPhase
2,0,T2,t,b,False,1553,1,14347,testPhase
3,0,T2,t,b,False,1898,1,14347,testPhase
4,0,A5,a,a,True,1016,1,14347,testPhase
5,0,T2,t,b,False,1118,1,14347,testPhase
6,0,A1,a,a,True,1348,1,14347,testPhase
7,0,A3,a,a,True,2774,1,14347,testPhase
8,0,T1,t,a,False,1019,1,14347,testPhase
9,0,A0,a,a,True,1083,1,14347,testPhase
10,0,T3,t,a,False,8237,1,14347,testPhase
11,0,T3,t,a,False,1054,1,14347,testPhase
12,0,T4,t,a,False,1363,1,14347,testPhase
13,0,T4,t,a,False,729,1,14347,testPhase
14,0,T3,t,b,False,1803,1,14347,testPhase
15,0,T0,t,a,False,1148,1,14347,testPhase
16,0,T1,t,a,False,1068,1,14347,testPhase
17,0,B4,b,b,True,1141,1,14347,testPhase
18,0,T1,t,a,False,901,1,14347,testPhase
19,0,T1,t,a,False,926,1,14347,testPhase
20,0,B2,b,b,True,3293,1,14347,testPhase
21,0,B5,b,b,True,1701,1,14347,testPhase
22,0,T0,t,a,False,891,1,14347,testPhase
23,0,B3,b,b,True,1558,1,14347,testPhase
24,0,T3,t,a,False,895,1,14347,testPhase
25,0,A4,a,a,True,967,1,14347,testPhase
26,0,T0,t,a,False,816,1,14347,testPhase
27,0,T2,t,b,False,1062,1,14347,testPhase
28,0,T4,t,a,False,1213,1,14347,testPhase
29,0,A7,a,a,True,694,1,14347,testPhase
30,0,B7,b,b,True,1200,1,14347,testPhase
31,0,T4,t,a,False,900,1,14347,testPhase
32,0,T0,t,a,False,1596,1,14347,testPhase
33,0,T1,t,a,False,1037,1,14347,testPhase
34,0,T4,t,a,False,4438,1,14347,testPhase
35,0,B6,b,b,True,1487,1,14347,testPhase
36,0,B1,b,b,True,884,1,14347,testPhase
37,0,B0,b,b,True,1303,1,14347,testPhase
38,0,T2,t,b,False,890,1,14347,testPhase
39,0,A6,a,a,True,1075,1,14347,testPhase
40,0,T3,t,a,False,1052,1,14347,testPhase
0,0,T3,t,a,False,4048,1,14356,testPhase
1,0,T1,t,a,False,924,1,14356,testPhase
2,0,T4,t,a,False,941,1,14356,testPhase
3,0,T1,t,b,False,879,1,14356,testPhase
4,0,T2,t,b,False,800,1,14356,testPhase
5,0,A7,a,a,True,1712,1,14356,testPhase
6,0,T1,t,a,False,1261,1,14356,testPhase
7,0,B5,b,a,False,808,1,14356,testPhase
8,0,T2,t,b,False,940,1,14356,testPhase
9,0,B1,b,b,True,1473,1,14356,testPhase
10,0,T2,t,a,False,1179,1,14356,testPhase
11,0,T2,t,a,False,914,1,14356,testPhase
12,0,A0,a,b,False,1651,1,14356,testPhase
13,0,T3,t,a,False,1846,1,14356,testPhase
14,0,A3,a,a,True,845,1,14356,testPhase
15,0,T4,t,a,False,960,1,14356,testPhase
16,0,A2,a,a,True,863,1,14356,testPhase
17,0,T1,t,b,False,1015,1,14356,testPhase
18,0,T3,t,b,False,580,1,14356,testPhase
19,0,B2,b,a,False,968,1,14356,testPhase
20,0,B3,b,b,True,1539,1,14356,testPhase
21,0,T3,t,b,False,1266,1,14356,testPhase
22,0,A1,a,b,False,808,1,14356,testPhase
23,0,B7,b,b,True,654,1,14356,testPhase
24,0,A4,a,a,True,723,1,14356,testPhase
25,0,T0,t,a,False,646,1,14356,testPhase
26,0,A5,a,a,True,1053,1,14356,testPhase
27,0,T4,t,a,False,1013,1,14356,testPhase
28,0,T0,t,a,False,904,1,14356,testPhase
29,0,T0,t,a,False,605,1,14356,testPhase
30,0,T0,t,a,False,627,1,14356,testPhase
31,0,B6,b,a,False,564,1,14356,testPhase
32,0,B4,b,b,True,858,1,14356,testPhase
33,0,T4,t,b,False,562,1,14356,testPhase
34,0,A6,a,b,False,534,1,14356,testPhase
35,0,T4,t,b,False,519,1,14356,testPhase
36,0,T3,t,a,False,838,1,14356,testPhase
37,0,T2,t,a,False,1033,1,14356,testPhase
38,0,T1,t,a,False,674,1,14356,testPhase
39,0,T0,t,a,False,683,1,14356,testPhase
40,0,B0,b,b,True,1247,1,14356,testPhase
0,0,T4,t,b,False,4562,1,15039,testPhase
1,0,T2,t,b,False,3446,1,15039,testPhase
2,0,T2,t,b,False,1390,1,15039,testPhase
3,0,B3,b,b,True,3477,1,15039,testPhase
4,0,A2,a,a,True,1269,1,15039,testPhase
5,0,T0,t,a,False,1114,1,15039,testPhase
6,0,B4,b,b,True,3006,1,15039,testPhase
7,0,B7,b,b,True,1021,1,15039,testPhase
8,0,T2,t,b,False,822,1,15039,testPhase
9,0,A3,a,a,True,935,1,15039,testPhase
10,0,T2,t,b,False,1019,1,15039,testPhase
11,0,A0,a,a,True,888,1,15039,testPhase
12,0,T0,t,a,False,1502,1,15039,testPhase
13,0,T3,t,a,False,715,1,15039,testPhase
14,0,T3,t,b,False,918,1,15039,testPhase
15,0,T1,t,a,False,1094,1,15039,testPhase
16,0,A4,a,a,True,1822,1,15039,testPhase
17,0,A6,a,b,False,1353,1,15039,testPhase
18,0,T4,t,b,False,1182,1,15039,testPhase
19,0,T3,t,a,False,1046,1,15039,testPhase
20,0,B5,b,b,True,1462,1,15039,testPhase
21,0,T1,t,a,False,669,1,15039,testPhase
22,0,T0,t,b,False,1182,1,15039,testPhase
23,0,T1,t,a,False,894,1,15039,testPhase
24,0,T2,t,b,False,1271,1,15039,testPhase
25,0,A1,a,a,True,1159,1,15039,testPhase
26,0,A5,a,b,False,1135,1,15039,testPhase
27,0,B2,b,b,True,1126,1,15039,testPhase
28,0,T1,t,a,False,1012,1,15039,testPhase
29,0,T4,t,b,False,950,1,15039,testPhase
30,0,B0,b,b,True,2781,1,15039,testPhase
31,0,T4,t,b,False,2502,1,15039,testPhase
32,0,T3,t,a,False,750,1,15039,testPhase
33,0,T0,t,a,False,1829,1,15039,testPhase
34,0,T4,t,b,False,957,1,15039,testPhase
35,0,B6,b,b,True,1484,1,15039,testPhase
36,0,B1,b,b,True,959,1,15039,testPhase
37,0,T0,t,a,False,1030,1,15039,testPhase
38,0,A7,a,b,False,1027,1,15039,testPhase
39,0,T1,t,a,False,647,1,15039,testPhase
40,0,T3,t,a,False,966,1,15039,testPhase
0,0,T2,t,b,False,2347,1,15044,testPhase
1,0,T3,t,b,False,5899,1,15044,testPhase
2,0,A6,a,a,True,1855,1,15044,testPhase
3,0,T1,t,a,False,1698,1,15044,testPhase
4,0,A1,a,b,False,3321,1,15044,testPhase
5,0,T0,t,a,False,1746,1,15044,testPhase
6,0,T1,t,a,False,2413,1,15044,testPhase
7,0,T2,t,b,False,1088,1,15044,testPhase
8,0,B2,b,b,True,4188,1,15044,testPhase
9,0,T0,t,a,False,1407,1,15044,testPhase
10,0,B6,b,b,True,1226,1,15044,testPhase
11,0,T3,t,b,False,5109,1,15044,testPhase
12,0,T0,t,a,False,2740,1,15044,testPhase
13,0,A0,a,a,True,1093,1,15044,testPhase
14,0,A7,a,b,False,860,1,15044,testPhase
15,0,T1,t,a,False,2738,1,15044,testPhase
16,0,A4,a,a,True,1275,1,15044,testPhase
17,0,T2,t,b,False,2232,1,15044,testPhase
18,0,B4,b,b,True,1025,1,15044,testPhase
19,0,T0,t,a,False,2311,1,15044,testPhase
20,0,B0,b,b,True,1222,1,15044,testPhase
21,0,T4,t,a,False,1360,1,15044,testPhase
22,0,T4,t,a,False,901,1,15044,testPhase
23,0,T0,t,a,False,2844,1,15044,testPhase
24,0,T4,t,a,False,2265,1,15044,testPhase
25,0,A2,a,a,True,1493,1,15044,testPhase
26,0,T4,t,a,False,1441,1,15044,testPhase
27,0,T3,t,b,False,2700,1,15044,testPhase
28,0,T4,t,a,False,1394,1,15044,testPhase
29,0,T3,t,b,False,1856,1,15044,testPhase
30,0,B1,b,a,False,1459,1,15044,testPhase
31,0,T3,t,b,False,3085,1,15044,testPhase
32,0,T2,t,b,False,1216,1,15044,testPhase
33,0,B5,b,b,True,1458,1,15044,testPhase
34,0,A3,a,a,True,1254,1,15044,testPhase
35,0,B3,b,b,True,1087,1,15044,testPhase
36,0,B7,b,b,True,1441,1,15044,testPhase
37,0,T2,t,b,False,871,1,15044,testPhase
38,0,T1,t,a,False,897,1,15044,testPhase
39,0,A5,a,a,True,1271,1,15044,testPhase
40,0,T1,t,a,False,1532,1,15044,testPhase
0,0,T4,t,a,False,2830,1,14357,testPhase
1,0,B5,b,b,True,2880,1,14357,testPhase
2,0,T3,t,a,False,4073,1,14357,testPhase
3,0,T4,t,b,False,971,1,14357,testPhase
4,0,B0,b,b,True,1352,1,14357,testPhase
5,0,T4,t,a,False,608,1,14357,testPhase
6,0,A0,a,a,True,756,1,14357,testPhase
7,0,B4,b,b,True,1230,1,14357,testPhase
8,0,T2,t,a,False,838,1,14357,testPhase
9,0,T2,t,a,False,883,1,14357,testPhase
10,0,T4,t,b,False,695,1,14357,testPhase
11,0,T3,t,a,False,446,1,14357,testPhase
12,0,A5,a,b,False,397,1,14357,testPhase
13,0,B2,b,a,False,604,1,14357,testPhase
14,0,A4,a,b,False,487,1,14357,testPhase
15,0,T1,t,a,False,541,1,14357,testPhase
16,0,A2,a,a,True,533,1,14357,testPhase
17,0,B6,b,b,True,1396,1,14357,testPhase
18,0,T0,t,a,False,598,1,14357,testPhase
19,0,A6,a,a,True,886,1,14357,testPhase
20,0,T1,t,b,False,829,1,14357,testPhase
21,0,B7,b,a,False,960,1,14357,testPhase
22,0,B1,b,b,True,461,1,14357,testPhase
23,0,T2,t,b,False,553,1,14357,testPhase
24,0,T0,t,b,False,582,1,14357,testPhase
25,0,T1,t,a,False,878,1,14357,testPhase
26,0,T3,t,a,False,859,1,14357,testPhase
27,0,A1,a,b,False,364,1,14357,testPhase
28,0,T1,t,a,False,430,1,14357,testPhase
29,0,A3,a,a,True,404,1,14357,testPhase
30,0,T0,t,b,False,597,1,14357,testPhase
31,0,T4,t,b,False,415,1,14357,testPhase
32,0,T2,t,b,False,549,1,14357,testPhase
33,0,T3,t,a,False,414,1,14357,testPhase
34,0,T1,t,a,False,502,1,14357,testPhase
35,0,T3,t,a,False,446,1,14357,testPhase
36,0,T0,t,b,False,341,1,14357,testPhase
37,0,T0,t,a,False,382,1,14357,testPhase
38,0,T2,t,b,False,757,1,14357,testPhase
39,0,A7,a,b,False,1054,1,14357,testPhase
40,0,B3,b,a,False,422,1,14357,testPhase
0,0,T3,t,a,False,2141,1,15066,testPhase
1,0,T0,t,b,False,2243,1,15066,testPhase
2,0,B2,b,b,True,1911,1,15066,testPhase
3,0,T4,t,b,False,3739,1,15066,testPhase
4,0,T1,t,a,False,1069,1,15066,testPhase
5,0,T1,t,a,False,1215,1,15066,testPhase
6,0,T1,t,a,False,879,1,15066,testPhase
7,0,T2,t,b,False,3166,1,15066,testPhase
8,0,T2,t,b,False,878,1,15066,testPhase
9,0,A6,a,a,True,1055,1,15066,testPhase
10,0,B7,b,a,False,996,1,15066,testPhase
11,0,T4,t,b,False,1972,1,15066,testPhase
12,0,B3,b,b,True,2142,1,15066,testPhase
13,0,T4,t,b,False,2071,1,15066,testPhase
14,0,B5,b,a,False,2325,1,15066,testPhase
15,0,A3,a,a,True,865,1,15066,testPhase
16,0,T0,t,b,False,1601,1,15066,testPhase
17,0,T0,t,a,False,1537,1,15066,testPhase
18,0,T3,t,a,False,930,1,15066,testPhase
19,0,A2,a,a,True,940,1,15066,testPhase
20,0,T0,t,b,False,1093,1,15066,testPhase
21,0,A4,a,b,False,1655,1,15066,testPhase
22,0,T2,t,a,False,1692,1,15066,testPhase
23,0,B1,b,b,True,1306,1,15066,testPhase
24,0,T4,t,a,False,830,1,15066,testPhase
25,0,A0,a,a,True,849,1,15066,testPhase
26,0,A5,a,b,False,1103,1,15066,testPhase
27,0,B6,b,a,False,3084,1,15066,testPhase
28,0,T4,t,b,False,1207,1,15066,testPhase
29,0,B4,b,a,False,1392,1,15066,testPhase
30,0,A7,a,a,True,714,1,15066,testPhase
31,0,T0,t,a,False,1247,1,15066,testPhase
32,0,A1,a,a,True,1230,1,15066,testPhase
33,0,T3,t,a,False,2711,1,15066,testPhase
34,0,T2,t,b,False,1058,1,15066,testPhase
35,0,T1,t,a,False,935,1,15066,testPhase
36,0,B0,b,b,True,1325,1,15066,testPhase
37,0,T2,t,a,False,1777,1,15066,testPhase
38,0,T3,t,a,False,938,1,15066,testPhase
39,0,T3,t,a,False,776,1,15066,testPhase
40,0,T1,t,a,False,985,1,15066,testPhase
0,0,T3,t,a,False,1811,1,15071,testPhase
1,0,T0,t,a,False,2125,1,15071,testPhase
2,0,T0,t,a,False,1703,1,15071,testPhase
3,0,B2,b,b,True,2353,1,15071,testPhase
4,0,A4,a,a,True,1406,1,15071,testPhase
5,0,T2,t,b,False,1088,1,15071,testPhase
6,0,B5,b,a,False,2790,1,15071,testPhase
7,0,A7,a,b,False,980,1,15071,testPhase
8,0,T0,t,a,False,1805,1,15071,testPhase
9,0,T3,t,a,False,1039,1,15071,testPhase
10,0,T1,t,a,False,910,1,15071,testPhase
11,0,A2,a,a,True,1112,1,15071,testPhase
12,0,B6,b,b,True,4146,1,15071,testPhase
13,0,A0,a,a,True,2750,1,15071,testPhase
14,0,T1,t,a,False,858,1,15071,testPhase
15,0,T0,t,a,False,1290,1,15071,testPhase
16,0,A5,a,b,False,1641,1,15071,testPhase
17,0,T4,t,a,False,1557,1,15071,testPhase
18,0,A3,a,a,True,1535,1,15071,testPhase
19,0,T4,t,a,False,2096,1,15071,testPhase
20,0,T4,t,a,False,1486,1,15071,testPhase
21,0,T2,t,b,False,1206,1,15071,testPhase
22,0,T3,t,b,False,956,1,15071,testPhase
23,0,A1,a,b,False,1242,1,15071,testPhase
24,0,T3,t,b,False,1211,1,15071,testPhase
25,0,B7,b,a,False,2002,1,15071,testPhase
26,0,T3,t,b,False,1115,1,15071,testPhase
27,0,T2,t,a,False,966,1,15071,testPhase
28,0,B4,b,a,False,953,1,15071,testPhase
29,0,T1,t,a,False,766,1,15071,testPhase
30,0,A6,a,b,False,1069,1,15071,testPhase
31,0,T4,t,a,False,1391,1,15071,testPhase
32,0,B1,b,a,False,767,1,15071,testPhase
33,0,T1,t,a,False,986,1,15071,testPhase
34,0,T2,t,b,False,1725,1,15071,testPhase
35,0,B0,b,a,False,917,1,15071,testPhase
36,0,T4,t,a,False,1963,1,15071,testPhase
37,0,T0,t,a,False,964,1,15071,testPhase
38,0,B3,b,b,True,877,1,15071,testPhase
39,0,T2,t,b,False,1075,1,15071,testPhase
40,0,T1,t,a,False,866,1,15071,testPhase
0,0,T1,t,a,False,1134,1,14358,testPhase
1,0,A4,a,a,True,1838,1,14358,testPhase
2,0,T3,t,a,False,1391,1,14358,testPhase
3,0,A5,a,b,False,605,1,14358,testPhase
4,0,T4,t,b,False,2773,1,14358,testPhase
5,0,A1,a,a,True,871,1,14358,testPhase
6,0,B0,b,b,True,687,1,14358,testPhase
7,0,T1,t,b,False,1574,1,14358,testPhase
8,0,T2,t,b,False,1283,1,14358,testPhase
9,0,T4,t,a,False,989,1,14358,testPhase
10,0,T2,t,b,False,1271,1,14358,testPhase
11,0,A7,a,a,True,1095,1,14358,testPhase
12,0,B4,b,b,True,954,1,14358,testPhase
13,0,T0,t,a,False,799,1,14358,testPhase
14,0,T0,t,b,False,1157,1,14358,testPhase
15,0,B6,b,a,False,574,1,14358,testPhase
16,0,A6,a,a,True,833,1,14358,testPhase
17,0,T0,t,b,False,1000,1,14358,testPhase
18,0,T0,t,a,False,617,1,14358,testPhase
19,0,T2,t,b,False,574,1,14358,testPhase
20,0,B7,b,a,False,535,1,14358,testPhase
21,0,T1,t,a,False,807,1,14358,testPhase
22,0,T4,t,b,False,1038,1,14358,testPhase
23,0,T1,t,b,False,1533,1,14358,testPhase
24,0,T3,t,a,False,510,1,14358,testPhase
25,0,T1,t,a,False,525,1,14358,testPhase
26,0,B1,b,b,True,1362,1,14358,testPhase
27,0,T4,t,a,False,848,1,14358,testPhase
28,0,B5,b,b,True,1361,1,14358,testPhase
29,0,T0,t,b,False,2029,1,14358,testPhase
30,0,A2,a,a,True,765,1,14358,testPhase
31,0,B2,b,b,True,975,1,14358,testPhase
32,0,A3,a,a,True,876,1,14358,testPhase
33,0,T2,t,b,False,1576,1,14358,testPhase
34,0,A0,a,a,True,759,1,14358,testPhase
35,0,T2,t,b,False,709,1,14358,testPhase
36,0,T3,t,a,False,940,1,14358,testPhase
37,0,B3,b,b,True,1216,1,14358,testPhase
38,0,T3,t,a,False,1272,1,14358,testPhase
39,0,T4,t,a,False,1711,1,14358,testPhase
40,0,T3,t,a,False,1374,1,14358,testPhase
0,0,T2,t,a,False,2475,1,15086,testPhase
1,0,T1,t,b,False,2276,1,15086,testPhase
2,0,B6,b,a,False,918,1,15086,testPhase
3,0,T4,t,b,False,1358,1,15086,testPhase
4,0,A5,a,b,False,846,1,15086,testPhase
5,0,T3,t,b,False,1077,1,15086,testPhase
6,0,A3,a,b,False,653,1,15086,testPhase
7,0,T2,t,a,False,590,1,15086,testPhase
8,0,B0,b,a,False,286,1,15086,testPhase
9,0,T2,t,b,False,787,1,15086,testPhase
10,0,A7,a,b,False,397,1,15086,testPhase
11,0,T0,t,a,False,502,1,15086,testPhase
12,0,T3,t,b,False,942,1,15086,testPhase
13,0,T0,t,a,False,1294,1,15086,testPhase
14,0,T3,t,a,False,966,1,15086,testPhase
15,0,T2,t,b,False,670,1,15086,testPhase
16,0,B1,b,b,True,2093,1,15086,testPhase
17,0,A6,a,a,True,1129,1,15086,testPhase
18,0,T4,t,a,False,469,1,15086,testPhase
19,0,A0,a,a,True,1134,1,15086,testPhase
20,0,B5,b,b,True,526,1,15086,testPhase
21,0,B7,b,b,True,732,1,15086,testPhase
22,0,T1,t,b,False,742,1,15086,testPhase
23,0,T4,t,a,False,686,1,15086,testPhase
24,0,T3,t,a,False,1702,1,15086,testPhase
25,0,T2,t,a,False,597,1,15086,testPhase
26,0,A4,a,b,False,613,1,15086,testPhase
27,0,T4,t,b,False,1637,1,15086,testPhase
28,0,A1,a,a,True,1294,1,15086,testPhase
29,0,B2,b,a,False,629,1,15086,testPhase
30,0,T0,t,a,False,958,1,15086,testPhase
31,0,T3,t,b,False,1070,1,15086,testPhase
32,0,B3,b,a,False,957,1,15086,testPhase
33,0,B4,b,b,True,933,1,15086,testPhase
34,0,T0,t,b,False,350,1,15086,testPhase
35,0,T1,t,a,False,893,1,15086,testPhase
36,0,T0,t,a,False,699,1,15086,testPhase
37,0,T4,t,b,False,757,1,15086,testPhase
38,0,T1,t,b,False,918,1,15086,testPhase
39,0,T1,t,b,False,366,1,15086,testPhase
40,0,A2,a,a,True,662,1,15086,testPhase
0,0,T2,t,b,False,1387,1,15091,testPhase
1,0,B5,b,b,True,8472,1,15091,testPhase
2,0,B3,b,a,False,1315,1,15091,testPhase
3,0,A5,a,b,False,3312,1,15091,testPhase
4,0,B1,b,b,True,1351,1,15091,testPhase
5,0,T0,t,a,False,4821,1,15091,testPhase
6,0,T0,t,a,False,2453,1,15091,testPhase
7,0,A0,a,a,True,687,1,15091,testPhase
8,0,T2,t,b,False,2377,1,15091,testPhase
9,0,T4,t,b,False,1080,1,15091,testPhase
10,0,T4,t,b,False,758,1,15091,testPhase
11,0,T1,t,a,False,788,1,15091,testPhase
12,0,T4,t,b,False,747,1,15091,testPhase
13,0,B0,b,b,True,776,1,15091,testPhase
14,0,T2,t,b,False,1975,1,15091,testPhase
15,0,T3,t,b,False,999,1,15091,testPhase
16,0,A3,a,a,True,1145,1,15091,testPhase
17,0,T2,t,b,False,1518,1,15091,testPhase
18,0,T1,t,a,False,787,1,15091,testPhase
19,0,A6,a,a,True,1226,1,15091,testPhase
20,0,T3,t,b,False,1423,1,15091,testPhase
21,0,T1,t,a,False,674,1,15091,testPhase
22,0,B6,b,a,False,3500,1,15091,testPhase
23,0,T3,t,b,False,820,1,15091,testPhase
24,0,T1,t,a,False,684,1,15091,testPhase
25,0,T0,t,a,False,1174,1,15091,testPhase
26,0,T3,t,b,False,2462,1,15091,testPhase
27,0,B7,b,b,True,4004,1,15091,testPhase
28,0,A1,a,b,False,1596,1,15091,testPhase
29,0,T4,t,b,False,1086,1,15091,testPhase
30,0,T0,t,a,False,1125,1,15091,testPhase
31,0,B4,b,b,True,1256,1,15091,testPhase
32,0,A7,a,a,True,854,1,15091,testPhase
33,0,A4,a,a,True,1361,1,15091,testPhase
34,0,A2,a,a,True,974,1,15091,testPhase
35,0,T0,t,a,False,1325,1,15091,testPhase
36,0,T1,t,a,False,1428,1,15091,testPhase
37,0,T2,t,b,False,1338,1,15091,testPhase
38,0,T4,t,b,False,890,1,15091,testPhase
39,0,B2,b,b,True,916,1,15091,testPhase
40,0,T3,t,b,False,1480,1,15091,testPhase
0,0,T2,t,a,False,2286,1,14359,testPhase
1,0,T4,t,a,False,1088,1,14359,testPhase
2,0,T3,t,a,False,1319,1,14359,testPhase
3,0,T0,t,a,False,1723,1,14359,testPhase
4,0,B2,b,b,True,1495,1,14359,testPhase
5,0,T4,t,b,False,2067,1,14359,testPhase
6,0,A2,a,a,True,956,1,14359,testPhase
7,0,A5,a,a,True,1543,1,14359,testPhase
8,0,T0,t,b,False,2844,1,14359,testPhase
9,0,A3,a,b,False,1255,1,14359,testPhase
10,0,T1,t,a,False,1069,1,14359,testPhase
11,0,T4,t,b,False,3526,1,14359,testPhase
12,0,B0,b,a,False,3907,1,14359,testPhase
13,0,B5,b,a,False,2008,1,14359,testPhase
14,0,A1,a,b,False,3025,1,14359,testPhase
15,0,B7,b,b,True,1007,1,14359,testPhase
16,0,A6,a,b,False,1673,1,14359,testPhase
17,0,T2,t,b,False,1121,1,14359,testPhase
18,0,B4,b,b,True,1975,1,14359,testPhase
19,0,B1,b,a,False,939,1,14359,testPhase
20,0,T0,t,a,False,1082,1,14359,testPhase
21,0,A0,a,a,True,992,1,14359,testPhase
22,0,B6,b,b,True,4920,1,14359,testPhase
23,0,T1,t,a,False,2600,1,14359,testPhase
24,0,T4,t,b,False,1612,1,14359,testPhase
25,0,T3,t,b,False,1731,1,14359,testPhase
26,0,T0,t,a,False,998,1,14359,testPhase
27,0,T4,t,a,False,1412,1,14359,testPhase
28,0,T2,t,b,False,2334,1,14359,testPhase
29,0,T3,t,b,False,1384,1,14359,testPhase
30,0,T3,t,b,False,709,1,14359,testPhase
31,0,T1,t,a,False,1231,1,14359,testPhase
32,0,T1,t,a,False,1004,1,14359,testPhase
33,0,T2,t,b,False,1145,1,14359,testPhase
34,0,T3,t,b,False,1878,1,14359,testPhase
35,0,A4,a,a,True,4601,1,14359,testPhase
36,0,A7,a,b,False,1084,1,14359,testPhase
37,0,T0,t,a,False,1037,1,14359,testPhase
38,0,B3,b,b,True,1030,1,14359,testPhase
39,0,T1,t,a,False,805,1,14359,testPhase
40,0,T2,t,b,False,807,1,14359,testPhase
0,0,A5,a,a,True,2193,1,15096,testPhase
1,0,T1,t,b,False,1344,1,15096,testPhase
2,0,T4,t,b,False,1630,1,15096,testPhase
3,0,A7,a,b,False,3607,1,15096,testPhase
4,0,A1,a,b,False,1178,1,15096,testPhase
5,0,T2,t,b,False,1158,1,15096,testPhase
6,0,A2,a,b,False,1310,1,15096,testPhase
7,0,T1,t,b,False,3175,1,15096,testPhase
8,0,A0,a,b,False,1208,1,15096,testPhase
9,0,T1,t,b,False,1172,1,15096,testPhase
10,0,B0,b,b,True,1016,1,15096,testPhase
11,0,A4,a,a,True,934,1,15096,testPhase
12,0,T1,t,b,False,1719,1,15096,testPhase
13,0,B6,b,b,True,934,1,15096,testPhase
14,0,B7,b,b,True,714,1,15096,testPhase
15,0,T0,t,a,False,884,1,15096,testPhase
16,0,T0,t,a,False,862,1,15096,testPhase
17,0,T0,t,a,False,821,1,15096,testPhase
18,0,T3,t,b,False,1126,1,15096,testPhase
19,0,T2,t,b,False,823,1,15096,testPhase
20,0,T3,t,b,False,822,1,15096,testPhase
21,0,T4,t,a,False,2182,1,15096,testPhase
22,0,T0,t,a,False,1126,1,15096,testPhase
23,0,T4,t,b,False,1139,1,15096,testPhase
24,0,T2,t,b,False,1331,1,15096,testPhase
25,0,B1,b,b,True,1133,1,15096,testPhase
26,0,T3,t,b,False,870,1,15096,testPhase
27,0,T0,t,a,False,1396,1,15096,testPhase
28,0,A6,a,b,False,1084,1,15096,testPhase
29,0,T3,t,b,False,974,1,15096,testPhase
30,0,T4,t,a,False,3200,1,15096,testPhase
31,0,B4,b,b,True,3110,1,15096,testPhase
32,0,T4,t,b,False,694,1,15096,testPhase
33,0,T3,t,b,False,777,1,15096,testPhase
34,0,T2,t,b,False,566,1,15096,testPhase
35,0,A3,a,a,True,1038,1,15096,testPhase
36,0,T2,t,b,False,1845,1,15096,testPhase
37,0,B2,b,b,True,1696,1,15096,testPhase
38,0,T1,t,b,False,1003,1,15096,testPhase
39,0,B3,b,b,True,1112,1,15096,testPhase
40,0,B5,b,b,True,1005,1,15096,testPhase
0,0,T3,t,a,False,1811,1,15101,testPhase
1,0,A4,a,b,False,519,1,15101,testPhase
2,0,T0,t,b,False,248,1,15101,testPhase
3,0,T1,t,b,False,140,1,15101,testPhase
4,0,B1,b,a,False,192,1,15101,testPhase
5,0,T2,t,a,False,685,1,15101,testPhase
6,0,T3,t,a,False,802,1,15101,testPhase
7,0,T4,t,b,False,645,1,15101,testPhase
8,0,B7,b,a,False,607,1,15101,testPhase
9,0,T1,t,a,False,758,1,15101,testPhase
10,0,T3,t,a,False,838,1,15101,testPhase
11,0,T2,t,b,False,1004,1,15101,testPhase
12,0,B5,b,a,False,345,1,15101,testPhase
13,0,T4,t,a,False,480,1,15101,testPhase
14,0,A3,a,a,True,201,1,15101,testPhase
15,0,A2,a,a,True,134,1,15101,testPhase
16,0,T2,t,a,False,755,1,15101,testPhase
17,0,T4,t,a,False,183,1,15101,testPhase
18,0,A5,a,a,True,146,1,15101,testPhase
19,0,T1,t,a,False,168,1,15101,testPhase
20,0,B3,b,a,False,146,1,15101,testPhase
21,0,B6,b,a,False,160,1,15101,testPhase
22,0,T4,t,b,False,1383,1,15101,testPhase
23,0,T1,t,a,False,988,1,15101,testPhase
24,0,T0,t,b,False,983,1,15101,testPhase
25,0,T2,t,b,False,1170,1,15101,testPhase
26,0,A0,a,a,True,888,1,15101,testPhase
27,0,B0,b,b,True,979,1,15101,testPhase
28,0,B4,b,a,False,1090,1,15101,testPhase
29,0,T4,t,a,False,800,1,15101,testPhase
30,0,B2,b,b,True,667,1,15101,testPhase
31,0,T3,t,a,False,935,1,15101,testPhase
32,0,T1,t,a,False,1126,1,15101,testPhase
33,0,A6,a,b,False,1115,1,15101,testPhase
34,0,A7,a,b,False,814,1,15101,testPhase
35,0,T0,t,b,False,731,1,15101,testPhase
36,0,T0,t,b,False,663,1,15101,testPhase
37,0,T0,t,b,False,548,1,15101,testPhase
38,0,T2,t,a,False,1603,1,15101,testPhase
39,0,T3,t,a,False,728,1,15101,testPhase
40,0,A1,a,a,True,614,1,15101,testPhase
0,0,T4,t,a,False,8514,1,14360,testPhase
1,0,A1,a,a,True,1753,1,14360,testPhase
2,0,T1,t,a,False,1121,1,14360,testPhase
3,0,T3,t,a,False,1449,1,14360,testPhase
4,0,B1,b,b,True,1363,1,14360,testPhase
5,0,T2,t,b,False,959,1,14360,testPhase
6,0,T1,t,a,False,925,1,14360,testPhase
7,0,T1,t,a,False,884,1,14360,testPhase
8,0,T0,t,a,False,1541,1,14360,testPhase
9,0,A0,a,a,True,1200,1,14360,testPhase
10,0,T3,t,a,False,1045,1,14360,testPhase
11,0,T1,t,a,False,901,1,14360,testPhase
12,0,A6,a,a,True,1989,1,14360,testPhase
13,0,T4,t,a,False,1412,1,14360,testPhase
14,0,T2,t,b,False,1246,1,14360,testPhase
15,0,A4,a,a,True,1471,1,14360,testPhase
16,0,B5,b,b,True,1181,1,14360,testPhase
17,0,B2,b,b,True,1038,1,14360,testPhase
18,0,T2,t,b,False,1205,1,14360,testPhase
19,0,T3,t,a,False,1109,1,14360,testPhase
20,0,B3,b,b,True,1166,1,14360,testPhase
21,0,T2,t,b,False,1118,1,14360,testPhase
22,0,T0,t,a,False,1078,1,14360,testPhase
23,0,A3,a,a,True,894,1,14360,testPhase
24,0,A5,a,a,True,1014,1,14360,testPhase
25,0,T0,t,a,False,766,1,14360,testPhase
26,0,B6,b,b,True,1247,1,14360,testPhase
27,0,B4,b,b,True,1333,1,14360,testPhase
28,0,B0,b,b,True,1007,1,14360,testPhase
29,0,T1,t,a,False,983,1,14360,testPhase
30,0,T0,t,a,False,1493,1,14360,testPhase
31,0,T4,t,a,False,2342,1,14360,testPhase
32,0,A7,a,a,True,857,1,14360,testPhase
33,0,A2,a,b,False,1262,1,14360,testPhase
34,0,T3,t,b,False,1382,1,14360,testPhase
35,0,T2,t,b,False,954,1,14360,testPhase
36,0,T3,t,b,False,1115,1,14360,testPhase
37,0,T4,t,a,False,1134,1,14360,testPhase
38,0,T4,t,a,False,855,1,14360,testPhase
39,0,B7,b,b,True,1118,1,14360,testPhase
40,0,T0,t,a,False,1102,1,14360,testPhase
0,0,T1,t,a,False,2933,1,15106,testPhase
1,0,B0,b,b,True,2420,1,15106,testPhase
2,0,T4,t,a,False,2179,1,15106,testPhase
3,0,T2,t,a,False,3166,1,15106,testPhase
4,0,B2,b,b,True,3852,1,15106,testPhase
5,0,A1,a,a,True,2670,1,15106,testPhase
6,0,T0,t,a,False,1485,1,15106,testPhase
7,0,T3,t,b,False,1127,1,15106,testPhase
8,0,T3,t,a,False,958,1,15106,testPhase
9,0,B1,b,b,True,2431,1,15106,testPhase
10,0,B3,b,a,False,1846,1,15106,testPhase
11,0,B6,b,b,True,2940,1,15106,testPhase
12,0,B5,b,a,False,946,1,15106,testPhase
13,0,A5,a,a,True,1518,1,15106,testPhase
14,0,T2,t,b,False,1159,1,15106,testPhase
15,0,T4,t,b,False,1784,1,15106,testPhase
16,0,B4,b,b,True,1228,1,15106,testPhase
17,0,T0,t,a,False,1223,1,15106,testPhase
18,0,T2,t,b,False,1494,1,15106,testPhase
19,0,T3,t,b,False,1064,1,15106,testPhase
20,0,A6,a,a,True,2235,1,15106,testPhase
21,0,T4,t,a,False,1842,1,15106,testPhase
22,0,A4,a,a,True,3684,1,15106,testPhase
23,0,T1,t,b,False,1640,1,15106,testPhase
24,0,T1,t,b,False,1270,1,15106,testPhase
25,0,T0,t,a,False,990,1,15106,testPhase
26,0,T0,t,a,False,1673,1,15106,testPhase
27,0,T2,t,a,False,1405,1,15106,testPhase
28,0,A3,a,a,True,3098,1,15106,testPhase
29,0,A2,a,b,False,1653,1,15106,testPhase
30,0,B7,b,a,False,1390,1,15106,testPhase
31,0,T1,t,b,False,1997,1,15106,testPhase
32,0,A0,a,a,True,1620,1,15106,testPhase
33,0,T0,t,a,False,3000,1,15106,testPhase
34,0,T1,t,b,False,830,1,15106,testPhase
35,0,T4,t,a,False,789,1,15106,testPhase
36,0,T3,t,b,False,1230,1,15106,testPhase
37,0,T4,t,b,False,1397,1,15106,testPhase
38,0,T2,t,b,False,1103,1,15106,testPhase
39,0,A7,a,a,True,1383,1,15106,testPhase
40,0,T3,t,a,False,933,1,15106,testPhase
0,0,A7,a,a,True,1220,1,15111,testPhase
1,0,T2,t,b,False,1912,1,15111,testPhase
2,0,T0,t,a,False,955,1,15111,testPhase
3,0,T3,t,a,False,850,1,15111,testPhase
4,0,A3,a,a,True,798,1,15111,testPhase
5,0,A2,a,b,False,1149,1,15111,testPhase
6,0,T1,t,b,False,633,1,15111,testPhase
7,0,T1,t,a,False,929,1,15111,testPhase
8,0,T4,t,b,False,1999,1,15111,testPhase
9,0,A1,a,a,True,1437,1,15111,testPhase
10,0,B5,b,b,True,3389,1,15111,testPhase
11,0,T2,t,a,False,1196,1,15111,testPhase
12,0,B1,b,b,True,1350,1,15111,testPhase
13,0,T4,t,b,False,5548,1,15111,testPhase
14,0,T4,t,b,False,1292,1,15111,testPhase
15,0,T2,t,a,False,912,1,15111,testPhase
16,0,T2,t,a,False,973,1,15111,testPhase
17,0,B2,b,b,True,2989,1,15111,testPhase
18,0,T3,t,a,False,2939,1,15111,testPhase
19,0,T3,t,a,False,595,1,15111,testPhase
20,0,A6,a,b,False,3581,1,15111,testPhase
21,0,T0,t,a,False,840,1,15111,testPhase
22,0,T3,t,a,False,1183,1,15111,testPhase
23,0,T1,t,b,False,1201,1,15111,testPhase
24,0,T3,t,a,False,1304,1,15111,testPhase
25,0,T0,t,a,False,2150,1,15111,testPhase
26,0,A5,a,b,False,904,1,15111,testPhase
27,0,B0,b,b,True,1570,1,15111,testPhase
28,0,T4,t,b,False,2020,1,15111,testPhase
29,0,B4,b,a,False,1219,1,15111,testPhase
30,0,T4,t,b,False,910,1,15111,testPhase
31,0,B3,b,a,False,755,1,15111,testPhase
32,0,T1,t,a,False,784,1,15111,testPhase
33,0,T2,t,a,False,824,1,15111,testPhase
34,0,B6,b,a,False,631,1,15111,testPhase
35,0,A0,a,a,True,1234,1,15111,testPhase
36,0,B7,b,a,False,1648,1,15111,testPhase
37,0,T1,t,b,False,732,1,15111,testPhase
38,0,T0,t,a,False,789,1,15111,testPhase
39,0,A4,a,b,False,681,1,15111,testPhase
40,0,T0,t,a,False,743,1,15111,testPhase
0,0,T1,t,a,False,4545,1,14361,testPhase
1,0,T3,t,b,False,3283,1,14361,testPhase
2,0,B0,b,a,False,3117,1,14361,testPhase
3,0,T2,t,b,False,1199,1,14361,testPhase
4,0,T0,t,a,False,3720,1,14361,testPhase
5,0,T4,t,a,False,1576,1,14361,testPhase
6,0,A6,a,b,False,951,1,14361,testPhase
7,0,T3,t,b,False,1839,1,14361,testPhase
8,0,T2,t,a,False,3035,1,14361,testPhase
9,0,T1,t,a,False,2422,1,14361,testPhase
10,0,T0,t,b,False,1461,1,14361,testPhase
11,0,A7,a,b,False,2591,1,14361,testPhase
12,0,B4,b,a,False,2054,1,14361,testPhase
13,0,A4,a,b,False,4261,1,14361,testPhase
14,0,A3,a,b,False,1510,1,14361,testPhase
15,0,T2,t,a,False,2694,1,14361,testPhase
16,0,T0,t,a,False,1271,1,14361,testPhase
17,0,T3,t,b,False,1798,1,14361,testPhase
18,0,T4,t,a,False,1643,1,14361,testPhase
19,0,T4,t,a,False,1974,1,14361,testPhase
20,0,B7,b,b,True,1585,1,14361,testPhase
21,0,T0,t,a,False,1500,1,14361,testPhase
22,0,A0,a,a,True,4104,1,14361,testPhase
23,0,T3,t,b,False,2511,1,14361,testPhase
24,0,T1,t,a,False,971,1,14361,testPhase
25,0,B3,b,b,True,933,1,14361,testPhase
26,0,B2,b,a,False,879,1,14361,testPhase
27,0,T2,t,b,False,2412,1,14361,testPhase
28,0,B1,b,a,False,2034,1,14361,testPhase
29,0,A1,a,a,True,1598,1,14361,testPhase
30,0,T4,t,a,False,1347,1,14361,testPhase
31,0,T3,t,b,False,1064,1,14361,testPhase
32,0,A5,a,b,False,2467,1,14361,testPhase
33,0,T1,t,a,False,1039,1,14361,testPhase
34,0,T2,t,b,False,1416,1,14361,testPhase
35,0,T4,t,a,False,1326,1,14361,testPhase
36,0,T0,t,a,False,972,1,14361,testPhase
37,0,B6,b,b,True,1514,1,14361,testPhase
38,0,A2,a,a,True,950,1,14361,testPhase
39,0,B5,b,a,False,1043,1,14361,testPhase
40,0,T1,t,a,False,866,1,14361,testPhase
0,0,T0,t,a,False,1685,1,15116,testPhase
1,0,T3,t,a,False,833,1,15116,testPhase
2,0,T1,t,a,False,910,1,15116,testPhase
3,0,A4,a,b,False,910,1,15116,testPhase
4,0,B7,b,b,True,1038,1,15116,testPhase
5,0,B1,b,b,True,1461,1,15116,testPhase
6,0,T2,t,b,False,846,1,15116,testPhase
7,0,B4,b,a,False,3022,1,15116,testPhase
8,0,B5,b,b,True,798,1,15116,testPhase
9,0,B0,b,a,False,780,1,15116,testPhase
10,0,T4,t,a,False,1125,1,15116,testPhase
11,0,T3,t,a,False,1623,1,15116,testPhase
12,0,T1,t,a,False,1310,1,15116,testPhase
13,0,B2,b,b,True,1302,1,15116,testPhase
14,0,T0,t,a,False,925,1,15116,testPhase
15,0,T3,t,a,False,932,1,15116,testPhase
16,0,T1,t,a,False,829,1,15116,testPhase
17,0,T2,t,b,False,2477,1,15116,testPhase
18,0,A3,a,a,True,1077,1,15116,testPhase
19,0,A2,a,a,True,774,1,15116,testPhase
20,0,T4,t,b,False,1868,1,15116,testPhase
21,0,T2,t,b,False,1155,1,15116,testPhase
22,0,B3,b,b,True,910,1,15116,testPhase
23,0,T4,t,a,False,1022,1,15116,testPhase
24,0,T3,t,a,False,1102,1,15116,testPhase
25,0,A5,a,a,True,1501,1,15116,testPhase
26,0,T1,t,a,False,743,1,15116,testPhase
27,0,A1,a,a,True,854,1,15116,testPhase
28,0,T3,t,a,False,551,1,15116,testPhase
29,0,A6,a,b,False,823,1,15116,testPhase
30,0,B6,b,b,True,870,1,15116,testPhase
31,0,T4,t,a,False,766,1,15116,testPhase
32,0,T2,t,b,False,1335,1,15116,testPhase
33,0,A7,a,b,False,749,1,15116,testPhase
34,0,T1,t,a,False,672,1,15116,testPhase
35,0,T0,t,a,False,1522,1,15116,testPhase
36,0,T2,t,b,False,741,1,15116,testPhase
37,0,T4,t,a,False,1759,1,15116,testPhase
38,0,T0,t,a,False,1150,1,15116,testPhase
39,0,A0,a,a,True,1086,1,15116,testPhase
40,0,T0,t,a,False,860,1,15116,testPhase
0,0,T2,t,b,False,3335,1,15121,testPhase
1,0,T3,t,a,False,2604,1,15121,testPhase
2,0,B5,b,b,True,1902,1,15121,testPhase
3,0,T2,t,b,False,1629,1,15121,testPhase
4,0,T3,t,a,False,1496,1,15121,testPhase
5,0,A3,a,a,True,1641,1,15121,testPhase
6,0,A1,a,a,True,1752,1,15121,testPhase
7,0,T1,t,a,False,983,1,15121,testPhase
8,0,B1,b,b,True,1696,1,15121,testPhase
9,0,A6,a,a,True,1627,1,15121,testPhase
10,0,A7,a,a,True,2128,1,15121,testPhase
11,0,B6,b,b,True,5225,1,15121,testPhase
12,0,T0,t,a,False,2014,1,15121,testPhase
13,0,T4,t,a,False,2582,1,15121,testPhase
14,0,A5,a,a,True,1210,1,15121,testPhase
15,0,T0,t,a,False,1902,1,15121,testPhase
16,0,T2,t,b,False,1195,1,15121,testPhase
17,0,T2,t,b,False,1037,1,15121,testPhase
18,0,T3,t,a,False,4973,1,15121,testPhase
19,0,B0,b,b,True,1257,1,15121,testPhase
20,0,A0,a,a,True,1250,1,15121,testPhase
21,0,T3,t,a,False,8424,1,15121,testPhase
22,0,T1,t,a,False,836,1,15121,testPhase
23,0,A2,a,a,True,1348,1,15121,testPhase
24,0,T1,t,a,False,792,1,15121,testPhase
25,0,T0,t,a,False,2063,1,15121,testPhase
26,0,B2,b,b,True,981,1,15121,testPhase
27,0,T3,t,a,False,1534,1,15121,testPhase
28,0,B3,b,b,True,1664,1,15121,testPhase
29,0,T0,t,a,False,2006,1,15121,testPhase
30,0,T1,t,a,False,1182,1,15121,testPhase
31,0,T0,t,a,False,1307,1,15121,testPhase
32,0,T4,t,a,False,5021,1,15121,testPhase
33,0,T4,t,b,False,1170,1,15121,testPhase
34,0,T4,t,b,False,1109,1,15121,testPhase
35,0,A4,a,a,True,1053,1,15121,testPhase
36,0,T1,t,a,False,1222,1,15121,testPhase
37,0,T2,t,b,False,1162,1,15121,testPhase
38,0,B7,b,b,True,1574,1,15121,testPhase
39,0,T4,t,a,False,917,1,15121,testPhase
40,0,B4,b,b,True,1593,1,15121,testPhase
0,0,T0,t,a,False,2130,1,14362,testPhase
1,0,T0,t,a,False,1454,1,14362,testPhase
2,0,T1,t,a,False,1823,1,14362,testPhase
3,0,T2,t,b,False,1511,1,14362,testPhase
4,0,T0,t,a,False,1254,1,14362,testPhase
5,0,T4,t,b,False,1982,1,14362,testPhase
6,0,T3,t,a,False,1150,1,14362,testPhase
7,0,A1,a,a,True,2358,1,14362,testPhase
8,0,T0,t,a,False,1539,1,14362,testPhase
9,0,T4,t,b,False,1045,1,14362,testPhase
10,0,B6,b,b,True,4899,1,14362,testPhase
11,0,T1,t,a,False,1021,1,14362,testPhase
12,0,T2,t,b,False,1525,1,14362,testPhase
13,0,T4,t,b,False,2461,1,14362,testPhase
14,0,T2,t,b,False,1318,1,14362,testPhase
15,0,T4,t,b,False,1254,1,14362,testPhase
16,0,T3,t,a,False,1414,1,14362,testPhase
17,0,T0,t,a,False,1650,1,14362,testPhase
18,0,T3,t,a,False,1265,1,14362,testPhase
19,0,B4,b,b,True,1062,1,14362,testPhase
20,0,T3,t,a,False,3051,1,14362,testPhase
21,0,B1,b,a,False,3582,1,14362,testPhase
22,0,T2,t,b,False,1540,1,14362,testPhase
23,0,A2,a,a,True,1137,1,14362,testPhase
24,0,B5,b,a,False,1577,1,14362,testPhase
25,0,T3,t,a,False,1094,1,14362,testPhase
26,0,A6,a,b,False,1078,1,14362,testPhase
27,0,A0,a,a,True,1014,1,14362,testPhase
28,0,B2,b,a,False,3078,1,14362,testPhase
29,0,A7,a,b,False,1894,1,14362,testPhase
30,0,T2,t,b,False,7398,1,14362,testPhase
31,0,A5,a,a,True,1102,1,14362,testPhase
32,0,A3,a,a,True,846,1,14362,testPhase
33,0,T4,t,b,False,3206,1,14362,testPhase
34,0,T1,t,a,False,963,1,14362,testPhase
35,0,B3,b,a,False,3668,1,14362,testPhase
36,0,A4,a,a,True,869,1,14362,testPhase
37,0,B0,b,b,True,2294,1,14362,testPhase
38,0,B7,b,b,True,1822,1,14362,testPhase
39,0,T1,t,a,False,813,1,14362,testPhase
40,0,T1,t,a,False,1097,1,14362,testPhase
0,0,T4,t,a,False,2683,1,15126,testPhase
1,0,T0,t,b,False,4106,1,15126,testPhase
2,0,T1,t,a,False,1270,1,15126,testPhase
3,0,B3,b,b,True,1921,1,15126,testPhase
4,0,T0,t,a,False,6067,1,15126,testPhase
5,0,B2,b,b,True,1296,1,15126,testPhase
6,0,A3,a,a,True,3593,1,15126,testPhase
7,0,T0,t,a,False,4275,1,15126,testPhase
8,0,A7,a,a,True,1262,1,15126,testPhase
9,0,T4,t,b,False,1150,1,15126,testPhase
10,0,B7,b,b,True,6553,1,15126,testPhase
11,0,B0,b,b,True,1158,1,15126,testPhase
12,0,A5,a,b,False,1952,1,15126,testPhase
13,0,T3,t,a,False,1313,1,15126,testPhase
14,0,B6,b,b,True,1193,1,15126,testPhase
15,0,T0,t,b,False,1814,1,15126,testPhase
16,0,A0,a,a,True,869,1,15126,testPhase
17,0,T2,t,b,False,1949,1,15126,testPhase
18,0,T1,t,a,False,844,1,15126,testPhase
19,0,T2,t,b,False,877,1,15126,testPhase
20,0,T2,t,b,False,1332,1,15126,testPhase
21,0,T0,t,b,False,1367,1,15126,testPhase
22,0,A4,a,b,False,1557,1,15126,testPhase
23,0,A1,a,a,True,3533,1,15126,testPhase
24,0,B4,b,b,True,1002,1,15126,testPhase
25,0,T3,t,a,False,1289,1,15126,testPhase
26,0,T1,t,a,False,904,1,15126,testPhase
27,0,T3,t,b,False,2640,1,15126,testPhase
28,0,T3,t,b,False,1913,1,15126,testPhase
29,0,T1,t,a,False,1020,1,15126,testPhase
30,0,B1,b,b,True,1109,1,15126,testPhase
31,0,A2,a,a,True,688,1,15126,testPhase
32,0,T3,t,b,False,1022,1,15126,testPhase
33,0,B5,b,b,True,932,1,15126,testPhase
34,0,T4,t,a,False,1982,1,15126,testPhase
35,0,A6,a,a,True,2592,1,15126,testPhase
36,0,T2,t,b,False,2710,1,15126,testPhase
37,0,T4,t,a,False,2514,1,15126,testPhase
38,0,T2,t,b,False,1107,1,15126,testPhase
39,0,T1,t,a,False,852,1,15126,testPhase
40,0,T4,t,a,False,1827,1,15126,testPhase
0,0,T2,t,b,False,4936,1,15131,testPhase
1,0,T4,t,a,False,2374,1,15131,testPhase
2,0,B4,b,b,True,6361,1,15131,testPhase
3,0,T4,t,a,False,2010,1,15131,testPhase
4,0,T3,t,a,False,1708,1,15131,testPhase
5,0,T1,t,a,False,1647,1,15131,testPhase
6,0,T3,t,a,False,1495,1,15131,testPhase
7,0,T4,t,a,False,1942,1,15131,testPhase
8,0,T3,t,a,False,1798,1,15131,testPhase
9,0,B7,b,b,True,1711,1,15131,testPhase
10,0,T3,t,a,False,2230,1,15131,testPhase
11,0,B0,b,b,True,3661,1,15131,testPhase
12,0,T0,t,b,False,3282,1,15131,testPhase
13,0,T0,t,b,False,2443,1,15131,testPhase
14,0,T1,t,a,False,1349,1,15131,testPhase
15,0,B6,b,b,True,6591,1,15131,testPhase
16,0,B2,b,b,True,2442,1,15131,testPhase
17,0,A7,a,a,True,1223,1,15131,testPhase
18,0,A3,a,a,True,1520,1,15131,testPhase
19,0,T3,t,a,False,1367,1,15131,testPhase
20,0,T4,t,a,False,2133,1,15131,testPhase
21,0,B3,b,b,True,9111,1,15131,testPhase
22,0,B5,b,b,True,3172,1,15131,testPhase
23,0,T1,t,a,False,1061,1,15131,testPhase
24,0,B1,b,a,False,3210,1,15131,testPhase
25,0,A5,a,b,False,1747,1,15131,testPhase
26,0,A0,a,a,True,1116,1,15131,testPhase
27,0,A2,a,a,True,2899,1,15131,testPhase
28,0,T0,t,b,False,1635,1,15131,testPhase
29,0,T1,t,a,False,1245,1,15131,testPhase
30,0,T2,t,b,False,3802,1,15131,testPhase
31,0,T2,t,b,False,2340,1,15131,testPhase
32,0,A6,a,a,True,2536,1,15131,testPhase
33,0,T2,t,b,False,2347,1,15131,testPhase
34,0,A4,a,b,False,3409,1,15131,testPhase
35,0,A1,a,a,True,1399,1,15131,testPhase
36,0,T0,t,b,False,1292,1,15131,testPhase
37,0,T0,t,b,False,1901,1,15131,testPhase
38,0,T1,t,a,False,1878,1,15131,testPhase
39,0,T4,t,a,False,5235,1,15131,testPhase
40,0,T2,t,b,False,4807,1,15131,testPhase
0,0,T0,t,a,False,1324,1,14363,testPhase
1,0,B1,b,b,True,1085,1,14363,testPhase
2,0,T0,t,a,False,792,1,14363,testPhase
3,0,T2,t,a,False,372,1,14363,testPhase
4,0,B5,b,b,True,374,1,14363,testPhase
5,0,A2,a,a,True,459,1,14363,testPhase
6,0,T3,t,b,False,353,1,14363,testPhase
7,0,T3,t,a,False,941,1,14363,testPhase
8,0,T1,t,b,False,392,1,14363,testPhase
9,0,T0,t,a,False,455,1,14363,testPhase
10,0,T2,t,b,False,337,1,14363,testPhase
11,0,A4,a,b,False,356,1,14363,testPhase
12,0,T1,t,b,False,404,1,14363,testPhase
13,0,A5,a,a,True,402,1,14363,testPhase
14,0,T4,t,b,False,285,1,14363,testPhase
15,0,A0,a,b,False,1036,1,14363,testPhase
16,0,T2,t,b,False,686,1,14363,testPhase
17,0,T4,t,a,False,657,1,14363,testPhase
18,0,T4,t,b,False,393,1,14363,testPhase
19,0,A1,a,a,True,418,1,14363,testPhase
20,0,T1,t,a,False,378,1,14363,testPhase
21,0,T4,t,a,False,1069,1,14363,testPhase
22,0,B6,b,b,True,792,1,14363,testPhase
23,0,T3,t,a,False,1086,1,14363,testPhase
24,0,B2,b,a,False,404,1,14363,testPhase
25,0,A6,a,b,False,347,1,14363,testPhase
26,0,T3,t,a,False,290,1,14363,testPhase
27,0,B3,b,b,True,356,1,14363,testPhase
28,0,T0,t,a,False,592,1,14363,testPhase
29,0,T4,t,a,False,441,1,14363,testPhase
30,0,A3,a,b,False,1151,1,14363,testPhase
31,0,B0,b,b,True,373,1,14363,testPhase
32,0,T3,t,b,False,471,1,14363,testPhase
33,0,T0,t,b,False,436,1,14363,testPhase
34,0,B7,b,a,False,717,1,14363,testPhase
35,0,T1,t,b,False,976,1,14363,testPhase
36,0,B4,b,a,False,1100,1,14363,testPhase
37,0,T2,t,b,False,852,1,14363,testPhase
38,0,A7,a,a,True,558,1,14363,testPhase
39,0,T2,t,b,False,537,1,14363,testPhase
40,0,T1,t,b,False,1020,1,14363,testPhase
0,0,B0,b,b,True,10028,1,15136,testPhase
1,0,T2,t,b,False,1801,1,15136,testPhase
2,0,T4,t,a,False,1315,1,15136,testPhase
3,0,A3,a,a,True,1485,1,15136,testPhase
4,0,T2,t,b,False,4886,1,15136,testPhase
5,0,B7,b,b,True,1497,1,15136,testPhase
6,0,T1,t,a,False,1464,1,15136,testPhase
7,0,T3,t,a,False,1143,1,15136,testPhase
8,0,T3,t,a,False,926,1,15136,testPhase
9,0,B6,b,b,True,1132,1,15136,testPhase
10,0,T1,t,a,False,1613,1,15136,testPhase
11,0,T4,t,a,False,2437,1,15136,testPhase
12,0,T0,t,a,False,2359,1,15136,testPhase
13,0,T0,t,a,False,774,1,15136,testPhase
14,0,A7,a,a,True,1119,1,15136,testPhase
15,0,T2,t,b,False,1046,1,15136,testPhase
16,0,B2,b,a,False,1376,1,15136,testPhase
17,0,A6,a,a,True,2933,1,15136,testPhase
18,0,T2,t,b,False,902,1,15136,testPhase
19,0,T3,t,a,False,1862,1,15136,testPhase
20,0,T1,t,a,False,734,1,15136,testPhase
21,0,A4,a,a,True,1716,1,15136,testPhase
22,0,T0,t,a,False,1830,1,15136,testPhase
23,0,T2,t,b,False,1073,1,15136,testPhase
24,0,T0,t,a,False,1020,1,15136,testPhase
25,0,B1,b,b,True,1174,1,15136,testPhase
26,0,T3,t,a,False,1280,1,15136,testPhase
27,0,A2,a,a,True,980,1,15136,testPhase
28,0,T4,t,a,False,2214,1,15136,testPhase
29,0,T3,t,a,False,2349,1,15136,testPhase
30,0,T4,t,b,False,1637,1,15136,testPhase
31,0,T0,t,a,False,5157,1,15136,testPhase
32,0,T4,t,a,False,1788,1,15136,testPhase
33,0,T1,t,a,False,1103,1,15136,testPhase
34,0,B4,b,b,True,1646,1,15136,testPhase
35,0,B5,b,a,False,1190,1,15136,testPhase
36,0,A1,a,b,False,1909,1,15136,testPhase
37,0,A5,a,a,True,1526,1,15136,testPhase
38,0,B3,b,b,True,1837,1,15136,testPhase
39,0,T1,t,a,False,1012,1,15136,testPhase
40,0,A0,a,a,True,899,1,15136,testPhase
0,0,T1,t,b,False,1299,1,15141,testPhase
1,0,T0,t,a,False,1794,1,15141,testPhase
2,0,T0,t,a,False,1461,1,15141,testPhase
3,0,T0,t,a,False,1181,1,15141,testPhase
4,0,A4,a,b,False,753,1,15141,testPhase
5,0,B3,b,a,False,2027,1,15141,testPhase
6,0,B4,b,b,True,2254,1,15141,testPhase
7,0,T2,t,a,False,689,1,15141,testPhase
8,0,T2,t,a,False,373,1,15141,testPhase
9,0,A6,a,a,True,355,1,15141,testPhase
10,0,B2,b,b,True,301,1,15141,testPhase
11,0,T1,t,a,False,454,1,15141,testPhase
12,0,T2,t,a,False,365,1,15141,testPhase
13,0,T3,t,b,False,934,1,15141,testPhase
14,0,T1,t,a,False,341,1,15141,testPhase
15,0,T0,t,b,False,860,1,15141,testPhase
16,0,A2,a,a,True,440,1,15141,testPhase
17,0,T4,t,a,False,1421,1,15141,testPhase
18,0,A1,a,b,False,815,1,15141,testPhase
19,0,T3,t,a,False,526,1,15141,testPhase
20,0,B6,b,a,False,1275,1,15141,testPhase
21,0,T3,t,b,False,710,1,15141,testPhase
22,0,T4,t,b,False,1303,1,15141,testPhase
23,0,A3,a,a,True,845,1,15141,testPhase
24,0,T2,t,a,False,814,1,15141,testPhase
25,0,B0,b,a,False,936,1,15141,testPhase
26,0,T3,t,b,False,944,1,15141,testPhase
27,0,T0,t,a,False,549,1,15141,testPhase
28,0,T4,t,a,False,437,1,15141,testPhase
29,0,T1,t,b,False,423,1,15141,testPhase
30,0,B5,b,a,False,1237,1,15141,testPhase
31,0,B1,b,a,False,333,1,15141,testPhase
32,0,T4,t,a,False,221,1,15141,testPhase
33,0,B7,b,a,False,238,1,15141,testPhase
34,0,T4,t,a,False,222,1,15141,testPhase
35,0,T1,t,a,False,230,1,15141,testPhase
36,0,A7,a,a,True,374,1,15141,testPhase
37,0,T3,t,a,False,304,1,15141,testPhase
38,0,A0,a,a,True,230,1,15141,testPhase
39,0,A5,a,b,False,708,1,15141,testPhase
40,0,T2,t,a,False,393,1,15141,testPhase
0,0,T1,t,a,False,5432,1,14364,testPhase
1,0,T3,t,b,False,9573,1,14364,testPhase
2,0,T2,t,a,False,725,1,14364,testPhase
3,0,T1,t,a,False,789,1,14364,testPhase
4,0,B7,b,a,False,782,1,14364,testPhase
5,0,T2,t,b,False,1246,1,14364,testPhase
6,0,T3,t,b,False,1007,1,14364,testPhase
7,0,T4,t,a,False,1038,1,14364,testPhase
8,0,T1,t,a,False,623,1,14364,testPhase
9,0,T2,t,a,False,612,1,14364,testPhase
10,0,B1,b,a,False,453,1,14364,testPhase
11,0,T0,t,b,False,959,1,14364,testPhase
12,0,B3,b,a,False,1826,1,14364,testPhase
13,0,A0,a,a,True,725,1,14364,testPhase
14,0,B5,b,a,False,1087,1,14364,testPhase
15,0,T4,t,b,False,1510,1,14364,testPhase
16,0,T1,t,a,False,838,1,14364,testPhase
17,0,B4,b,a,False,638,1,14364,testPhase
18,0,T0,t,b,False,978,1,14364,testPhase
19,0,T3,t,a,False,541,1,14364,testPhase
20,0,T2,t,b,False,461,1,14364,testPhase
21,0,T4,t,a,False,782,1,14364,testPhase
22,0,A7,a,b,False,1879,1,14364,testPhase
23,0,T0,t,a,False,692,1,14364,testPhase
24,0,B2,b,b,True,1310,1,14364,testPhase
25,0,T4,t,a,False,614,1,14364,testPhase
26,0,T2,t,a,False,1450,1,14364,testPhase
27,0,T4,t,a,False,702,1,14364,testPhase
28,0,A5,a,b,False,906,1,14364,testPhase
29,0,T1,t,a,False,966,1,14364,testPhase
30,0,T0,t,b,False,2225,1,14364,testPhase
31,0,A3,a,b,False,430,1,14364,testPhase
32,0,A1,a,b,False,406,1,14364,testPhase
33,0,T3,t,a,False,942,1,14364,testPhase
34,0,A4,a,b,False,382,1,14364,testPhase
35,0,B6,b,a,False,1162,1,14364,testPhase
36,0,A6,a,a,True,740,1,14364,testPhase
37,0,A2,a,a,True,774,1,14364,testPhase
38,0,B0,b,a,False,752,1,14364,testPhase
39,0,T3,t,b,False,573,1,14364,testPhase
40,0,T0,t,b,False,1150,1,14364,testPhase
0,0,T0,t,a,False,1358,1,15146,testPhase
1,0,A3,a,a,True,1028,1,15146,testPhase
2,0,T4,t,b,False,1294,1,15146,testPhase
3,0,T1,t,a,False,843,1,15146,testPhase
4,0,T1,t,a,False,885,1,15146,testPhase
5,0,T3,t,a,False,939,1,15146,testPhase
6,0,A4,a,b,False,925,1,15146,testPhase
7,0,T2,t,b,False,842,1,15146,testPhase
8,0,B7,b,a,False,859,1,15146,testPhase
9,0,A1,a,a,True,876,1,15146,testPhase
10,0,A0,a,a,True,772,1,15146,testPhase
11,0,B6,b,b,True,963,1,15146,testPhase
12,0,B0,b,b,True,1332,1,15146,testPhase
13,0,T0,t,b,False,944,1,15146,testPhase
14,0,T4,t,a,False,853,1,15146,testPhase
15,0,T0,t,b,False,762,1,15146,testPhase
16,0,B1,b,b,True,748,1,15146,testPhase
17,0,T3,t,a,False,664,1,15146,testPhase
18,0,T4,t,b,False,631,1,15146,testPhase
19,0,T1,t,a,False,841,1,15146,testPhase
20,0,A7,a,b,False,725,1,15146,testPhase
21,0,T4,t,b,False,859,1,15146,testPhase
22,0,B5,b,b,True,1026,1,15146,testPhase
23,0,T2,t,b,False,779,1,15146,testPhase
24,0,T0,t,b,False,950,1,15146,testPhase
25,0,A2,a,a,True,779,1,15146,testPhase
26,0,T3,t,a,False,963,1,15146,testPhase
27,0,T0,t,b,False,661,1,15146,testPhase
28,0,T1,t,a,False,632,1,15146,testPhase
29,0,T2,t,b,False,749,1,15146,testPhase
30,0,T3,t,a,False,628,1,15146,testPhase
31,0,T1,t,b,False,736,1,15146,testPhase
32,0,B4,b,b,True,1006,1,15146,testPhase
33,0,B2,b,a,False,698,1,15146,testPhase
34,0,T2,t,b,False,683,1,15146,testPhase
35,0,A5,a,b,False,574,1,15146,testPhase
36,0,T3,t,a,False,901,1,15146,testPhase
37,0,T4,t,b,False,2175,1,15146,testPhase
38,0,B3,b,b,True,805,1,15146,testPhase
39,0,T2,t,b,False,1124,1,15146,testPhase
40,0,A6,a,b,False,1322,1,15146,testPhase
0,0,B7,b,a,False,3002,1,15151,testPhase
1,0,T0,t,a,False,4399,1,15151,testPhase
2,0,T2,t,a,False,1504,1,15151,testPhase
3,0,T0,t,b,False,3341,1,15151,testPhase
4,0,T4,t,b,False,1447,1,15151,testPhase
5,0,T1,t,a,False,684,1,15151,testPhase
6,0,B3,b,b,True,2347,1,15151,testPhase
7,0,T3,t,b,False,1359,1,15151,testPhase
8,0,B2,b,a,False,862,1,15151,testPhase
9,0,A7,a,b,False,799,1,15151,testPhase
10,0,B0,b,a,False,1105,1,15151,testPhase
11,0,A6,a,b,False,1358,1,15151,testPhase
12,0,A4,a,a,True,918,1,15151,testPhase
13,0,T3,t,b,False,900,1,15151,testPhase
14,0,T3,t,b,False,970,1,15151,testPhase
15,0,T0,t,a,False,1041,1,15151,testPhase
16,0,T2,t,a,False,1754,1,15151,testPhase
17,0,T1,t,a,False,1059,1,15151,testPhase
18,0,T0,t,b,False,1062,1,15151,testPhase
19,0,A1,a,b,False,686,1,15151,testPhase
20,0,T3,t,b,False,670,1,15151,testPhase
21,0,A2,a,a,True,796,1,15151,testPhase
22,0,B4,b,b,True,814,1,15151,testPhase
23,0,T1,t,a,False,609,1,15151,testPhase
24,0,T2,t,a,False,614,1,15151,testPhase
25,0,T2,t,b,False,974,1,15151,testPhase
26,0,B5,b,a,False,710,1,15151,testPhase
27,0,T4,t,a,False,689,1,15151,testPhase
28,0,T4,t,b,False,853,1,15151,testPhase
29,0,B1,b,a,False,526,1,15151,testPhase
30,0,T4,t,a,False,502,1,15151,testPhase
31,0,A0,a,a,True,582,1,15151,testPhase
32,0,T4,t,a,False,542,1,15151,testPhase
33,0,T2,t,b,False,806,1,15151,testPhase
34,0,T3,t,b,False,510,1,15151,testPhase
35,0,A5,a,b,False,591,1,15151,testPhase
36,0,T1,t,a,False,694,1,15151,testPhase
37,0,T1,t,a,False,438,1,15151,testPhase
38,0,B6,b,a,False,406,1,15151,testPhase
39,0,T0,t,b,False,550,1,15151,testPhase
40,0,A3,a,b,False,982,1,15151,testPhase
0,0,T1,t,a,False,2269,1,14366,testPhase
1,0,T0,t,b,False,916,1,14366,testPhase
2,0,A3,a,a,True,873,1,14366,testPhase
3,0,T0,t,b,False,823,1,14366,testPhase
4,0,T1,t,a,False,1997,1,14366,testPhase
5,0,T1,t,a,False,1237,1,14366,testPhase
6,0,T3,t,b,False,737,1,14366,testPhase
7,0,T3,t,b,False,1243,1,14366,testPhase
8,0,T3,t,b,False,791,1,14366,testPhase
9,0,T1,t,a,False,743,1,14366,testPhase
10,0,T2,t,b,False,783,1,14366,testPhase
11,0,B0,b,a,False,2440,1,14366,testPhase
12,0,A7,a,b,False,1022,1,14366,testPhase
13,0,T4,t,b,False,1716,1,14366,testPhase
14,0,B1,b,a,False,1211,1,14366,testPhase
15,0,T0,t,a,False,1026,1,14366,testPhase
16,0,A6,a,b,False,730,1,14366,testPhase
17,0,T2,t,b,False,1123,1,14366,testPhase
18,0,T0,t,a,False,839,1,14366,testPhase
19,0,T4,t,b,False,860,1,14366,testPhase
20,0,T2,t,b,False,837,1,14366,testPhase
21,0,A4,a,a,True,795,1,14366,testPhase
22,0,T2,t,b,False,642,1,14366,testPhase
23,0,B5,b,a,False,697,1,14366,testPhase
24,0,A5,a,a,True,841,1,14366,testPhase
25,0,B6,b,a,False,709,1,14366,testPhase
26,0,A1,a,b,False,625,1,14366,testPhase
27,0,T1,t,a,False,691,1,14366,testPhase
28,0,T0,t,a,False,1062,1,14366,testPhase
29,0,T3,t,b,False,796,1,14366,testPhase
30,0,T3,t,b,False,964,1,14366,testPhase
31,0,T4,t,a,False,837,1,14366,testPhase
32,0,T2,t,b,False,1275,1,14366,testPhase
33,0,A0,a,a,True,784,1,14366,testPhase
34,0,B2,b,a,False,991,1,14366,testPhase
35,0,B7,b,a,False,1133,1,14366,testPhase
36,0,B4,b,b,True,824,1,14366,testPhase
37,0,A2,a,a,True,534,1,14366,testPhase
38,0,T4,t,b,False,533,1,14366,testPhase
39,0,B3,b,b,True,2397,1,14366,testPhase
40,0,T4,t,b,False,1030,1,14366,testPhase
0,0,T4,t,b,False,5866,1,15156,testPhase
1,0,T2,t,a,False,4726,1,15156,testPhase
2,0,T3,t,a,False,3157,1,15156,testPhase
3,0,T0,t,a,False,2191,1,15156,testPhase
4,0,T1,t,b,False,961,1,15156,testPhase
5,0,T0,t,b,False,3438,1,15156,testPhase
6,0,B7,b,b,True,1241,1,15156,testPhase
7,0,T1,t,b,False,2071,1,15156,testPhase
8,0,T1,t,a,False,2413,1,15156,testPhase
9,0,T0,t,a,False,2333,1,15156,testPhase
10,0,B5,b,b,True,1055,1,15156,testPhase
11,0,A5,a,b,False,837,1,15156,testPhase
12,0,T1,t,b,False,975,1,15156,testPhase
13,0,B1,b,a,False,926,1,15156,testPhase
14,0,T4,t,a,False,2358,1,15156,testPhase
15,0,T1,t,a,False,4205,1,15156,testPhase
16,0,A4,a,b,False,1413,1,15156,testPhase
17,0,T2,t,b,False,1107,1,15156,testPhase
18,0,T3,t,a,False,1702,1,15156,testPhase
19,0,T4,t,b,False,1672,1,15156,testPhase
20,0,T4,t,b,False,1134,1,15156,testPhase
21,0,A6,a,a,True,1675,1,15156,testPhase
22,0,T2,t,a,False,1327,1,15156,testPhase
23,0,T0,t,a,False,847,1,15156,testPhase
24,0,T3,t,a,False,1374,1,15156,testPhase
25,0,B4,b,b,True,789,1,15156,testPhase
26,0,B6,b,b,True,639,1,15156,testPhase
27,0,A0,a,b,False,3621,1,15156,testPhase
28,0,T2,t,a,False,2521,1,15156,testPhase
29,0,A7,a,b,False,1190,1,15156,testPhase
30,0,B0,b,a,False,1278,1,15156,testPhase
31,0,T3,t,b,False,678,1,15156,testPhase
32,0,T2,t,a,False,820,1,15156,testPhase
33,0,B3,b,b,True,526,1,15156,testPhase
34,0,A1,a,b,False,2036,1,15156,testPhase
35,0,T3,t,a,False,1145,1,15156,testPhase
36,0,B2,b,a,False,1925,1,15156,testPhase
37,0,A3,a,b,False,882,1,15156,testPhase
38,0,T0,t,a,False,750,1,15156,testPhase
39,0,T4,t,b,False,527,1,15156,testPhase
40,0,A2,a,a,True,1405,1,15156,testPhase
0,0,T2,t,b,False,1219,1,15161,testPhase
1,0,T0,t,b,False,3391,1,15161,testPhase
2,0,A2,a,a,True,951,1,15161,testPhase
3,0,T3,t,a,False,1373,1,15161,testPhase
4,0,T4,t,a,False,1302,1,15161,testPhase
5,0,A3,a,a,True,1206,1,15161,testPhase
6,0,T3,t,a,False,2703,1,15161,testPhase
7,0,T3,t,a,False,1158,1,15161,testPhase
8,0,B2,b,b,True,813,1,15161,testPhase
9,0,A7,a,b,False,1056,1,15161,testPhase
10,0,A1,a,a,True,1375,1,15161,testPhase
11,0,T2,t,b,False,780,1,15161,testPhase
12,0,B1,b,b,True,2235,1,15161,testPhase
13,0,T1,t,a,False,830,1,15161,testPhase
14,0,T4,t,a,False,1551,1,15161,testPhase
15,0,T3,t,a,False,885,1,15161,testPhase
16,0,T3,t,a,False,772,1,15161,testPhase
17,0,B4,b,b,True,1744,1,15161,testPhase
18,0,B3,b,b,True,1050,1,15161,testPhase
19,0,B5,b,b,True,1533,1,15161,testPhase
20,0,T4,t,a,False,1399,1,15161,testPhase
21,0,T1,t,a,False,1375,1,15161,testPhase
22,0,A5,a,b,False,940,1,15161,testPhase
23,0,A0,a,a,True,1070,1,15161,testPhase
24,0,T2,t,b,False,970,1,15161,testPhase
25,0,T4,t,a,False,1759,1,15161,testPhase
26,0,T2,t,b,False,1032,1,15161,testPhase
27,0,T2,t,b,False,851,1,15161,testPhase
28,0,T0,t,b,False,2033,1,15161,testPhase
29,0,T0,t,b,False,667,1,15161,testPhase
30,0,A4,a,a,True,1644,1,15161,testPhase
31,0,T0,t,b,False,1475,1,15161,testPhase
32,0,T1,t,a,False,621,1,15161,testPhase
33,0,T0,t,b,False,1526,1,15161,testPhase
34,0,T1,t,a,False,638,1,15161,testPhase
35,0,A6,a,a,True,1283,1,15161,testPhase
36,0,T1,t,a,False,801,1,15161,testPhase
37,0,B6,b,b,True,743,1,15161,testPhase
38,0,B0,b,b,True,823,1,15161,testPhase
39,0,B7,b,b,True,1371,1,15161,testPhase
40,0,T4,t,a,False,945,1,15161,testPhase
0,0,T3,t,a,False,2964,1,14348,testPhase
1,0,B7,b,b,True,2765,1,14348,testPhase
2,0,T0,t,b,False,2173,1,14348,testPhase
3,0,A4,a,a,True,1789,1,14348,testPhase
4,0,B1,b,a,False,1060,1,14348,testPhase
5,0,B3,b,b,True,1262,1,14348,testPhase
6,0,T4,t,a,False,1682,1,14348,testPhase
7,0,T4,t,a,False,1062,1,14348,testPhase
8,0,T2,t,b,False,997,1,14348,testPhase
9,0,T1,t,a,False,1090,1,14348,testPhase
10,0,T2,t,b,False,1807,1,14348,testPhase
11,0,T2,t,b,False,1083,1,14348,testPhase
12,0,B4,b,b,True,2312,1,14348,testPhase
13,0,B0,b,a,False,923,1,14348,testPhase
14,0,A2,a,a,True,911,1,14348,testPhase
15,0,T3,t,b,False,1454,1,14348,testPhase
16,0,A5,a,b,False,1372,1,14348,testPhase
17,0,T1,t,a,False,784,1,14348,testPhase
18,0,A3,a,a,True,3239,1,14348,testPhase
19,0,T4,t,a,False,839,1,14348,testPhase
20,0,T1,t,a,False,751,1,14348,testPhase
21,0,T2,t,b,False,1190,1,14348,testPhase
22,0,A6,a,b,False,5733,1,14348,testPhase
23,0,T2,t,b,False,1156,1,14348,testPhase
24,0,B6,b,b,True,960,1,14348,testPhase
25,0,A0,a,a,True,648,1,14348,testPhase
26,0,T4,t,a,False,691,1,14348,testPhase
27,0,B5,b,a,False,1514,1,14348,testPhase
28,0,A7,a,a,True,1135,1,14348,testPhase
29,0,T3,t,b,False,1471,1,14348,testPhase
30,0,T0,t,a,False,7381,1,14348,testPhase
31,0,T0,t,a,False,892,1,14348,testPhase
32,0,T1,t,a,False,736,1,14348,testPhase
33,0,A1,a,b,False,1032,1,14348,testPhase
34,0,B2,b,a,False,719,1,14348,testPhase
35,0,T4,t,a,False,648,1,14348,testPhase
36,0,T0,t,a,False,1804,1,14348,testPhase
37,0,T0,t,a,False,1199,1,14348,testPhase
38,0,T3,t,b,False,711,1,14348,testPhase
39,0,T3,t,b,False,670,1,14348,testPhase
40,0,T1,t,a,False,1143,1,14348,testPhase
0,0,T2,t,b,False,2592,1,14367,testPhase
1,0,T0,t,a,False,1632,1,14367,testPhase
2,0,T1,t,a,False,1025,1,14367,testPhase
3,0,T0,t,a,False,12983,1,14367,testPhase
4,0,T3,t,a,False,918,1,14367,testPhase
5,0,B1,b,a,False,2726,1,14367,testPhase
6,0,B3,b,b,True,1017,1,14367,testPhase
7,0,B0,b,a,False,951,1,14367,testPhase
8,0,T4,t,b,False,1994,1,14367,testPhase
9,0,T0,t,a,False,3334,1,14367,testPhase
10,0,T4,t,a,False,716,1,14367,testPhase
11,0,B4,b,b,True,1172,1,14367,testPhase
12,0,T0,t,a,False,2982,1,14367,testPhase
13,0,A2,a,a,True,832,1,14367,testPhase
14,0,T4,t,b,False,1243,1,14367,testPhase
15,0,T2,t,b,False,1065,1,14367,testPhase
16,0,A1,a,a,True,758,1,14367,testPhase
17,0,T2,t,b,False,4733,1,14367,testPhase
18,0,T3,t,a,False,722,1,14367,testPhase
19,0,A4,a,a,True,1711,1,14367,testPhase
20,0,A5,a,b,False,1047,1,14367,testPhase
21,0,T4,t,a,False,804,1,14367,testPhase
22,0,T1,t,a,False,765,1,14367,testPhase
23,0,A3,a,a,True,723,1,14367,testPhase
24,0,A7,a,b,False,1182,1,14367,testPhase
25,0,T1,t,a,False,925,1,14367,testPhase
26,0,T4,t,b,False,1592,1,14367,testPhase
27,0,B5,b,b,True,941,1,14367,testPhase
28,0,A6,a,b,False,863,1,14367,testPhase
29,0,B6,b,b,True,878,1,14367,testPhase
30,0,T2,t,a,False,1226,1,14367,testPhase
31,0,T3,t,a,False,573,1,14367,testPhase
32,0,A0,a,a,True,674,1,14367,testPhase
33,0,T1,t,a,False,554,1,14367,testPhase
34,0,T3,t,a,False,680,1,14367,testPhase
35,0,T1,t,a,False,560,1,14367,testPhase
36,0,T2,t,b,False,1155,1,14367,testPhase
37,0,T0,t,a,False,990,1,14367,testPhase
38,0,B2,b,a,False,551,1,14367,testPhase
39,0,B7,b,b,True,1115,1,14367,testPhase
40,0,T3,t,a,False,533,1,14367,testPhase
0,0,A2,a,a,True,4921,1,15188,testPhase
1,0,B5,b,b,True,2719,1,15188,testPhase
2,0,T0,t,a,False,1024,1,15188,testPhase
3,0,T0,t,b,False,1479,1,15188,testPhase
4,0,T1,t,a,False,1831,1,15188,testPhase
5,0,T2,t,b,False,2067,1,15188,testPhase
6,0,B1,b,a,False,2363,1,15188,testPhase
7,0,B0,b,b,True,1328,1,15188,testPhase
8,0,A7,a,b,False,3793,1,15188,testPhase
9,0,A0,a,a,True,2506,1,15188,testPhase
10,0,B3,b,b,True,2742,1,15188,testPhase
11,0,T1,t,a,False,2427,1,15188,testPhase
12,0,T4,t,b,False,2151,1,15188,testPhase
13,0,T3,t,a,False,15799,1,15188,testPhase
14,0,T2,t,b,False,545,1,15188,testPhase
15,0,T1,t,a,False,950,1,15188,testPhase
16,0,T0,t,b,False,1287,1,15188,testPhase
17,0,B4,b,a,False,521,1,15188,testPhase
18,0,B2,b,b,True,1193,1,15188,testPhase
19,0,T2,t,a,False,931,1,15188,testPhase
20,0,T1,t,b,False,1257,1,15188,testPhase
21,0,T3,t,a,False,975,1,15188,testPhase
22,0,A3,a,b,False,952,1,15188,testPhase
23,0,T4,t,a,False,1328,1,15188,testPhase
24,0,T1,t,b,False,3174,1,15188,testPhase
25,0,T2,t,a,False,804,1,15188,testPhase
26,0,T4,t,b,False,602,1,15188,testPhase
27,0,T0,t,a,False,720,1,15188,testPhase
28,0,T2,t,b,False,794,1,15188,testPhase
29,0,T3,t,a,False,1106,1,15188,testPhase
30,0,T4,t,b,False,676,1,15188,testPhase
31,0,B7,b,a,False,633,1,15188,testPhase
32,0,A6,a,b,False,584,1,15188,testPhase
33,0,T3,t,a,False,1191,1,15188,testPhase
34,0,T3,t,a,False,410,1,15188,testPhase
35,0,A1,a,a,True,416,1,15188,testPhase
36,0,B6,b,b,True,593,1,15188,testPhase
37,0,A5,a,b,False,684,1,15188,testPhase
38,0,A4,a,a,True,609,1,15188,testPhase
39,0,T4,t,a,False,1038,1,15188,testPhase
40,0,T0,t,b,False,831,1,15188,testPhase
0,0,T2,t,a,False,1090,1,15206,testPhase
1,0,A0,a,b,False,406,1,15206,testPhase
2,0,B6,b,a,False,429,1,15206,testPhase
3,0,T4,t,a,False,430,1,15206,testPhase
4,0,T1,t,b,False,390,1,15206,testPhase
5,0,T1,t,b,False,325,1,15206,testPhase
6,0,T1,t,b,False,277,1,15206,testPhase
7,0,T3,t,b,False,398,1,15206,testPhase
8,0,B7,b,b,True,317,1,15206,testPhase
9,0,A2,a,b,False,648,1,15206,testPhase
10,0,B5,b,b,True,750,1,15206,testPhase
11,0,T2,t,b,False,510,1,15206,testPhase
12,0,A6,a,b,False,649,1,15206,testPhase
13,0,T1,t,b,False,1352,1,15206,testPhase
14,0,T4,t,b,False,686,1,15206,testPhase
15,0,T0,t,a,False,1213,1,15206,testPhase
16,0,T3,t,b,False,641,1,15206,testPhase
17,0,T4,t,b,False,478,1,15206,testPhase
18,0,B1,b,b,True,566,1,15206,testPhase
19,0,B4,b,b,True,525,1,15206,testPhase
20,0,A1,a,b,False,437,1,15206,testPhase
21,0,B2,b,b,True,773,1,15206,testPhase
22,0,T0,t,a,False,949,1,15206,testPhase
23,0,T0,t,a,False,950,1,15206,testPhase
24,0,T1,t,b,False,1369,1,15206,testPhase
25,0,T2,t,b,False,813,1,15206,testPhase
26,0,T3,t,b,False,603,1,15206,testPhase
27,0,T4,t,b,False,660,1,15206,testPhase
28,0,T4,t,b,False,616,1,15206,testPhase
29,0,T2,t,b,False,982,1,15206,testPhase
30,0,T2,t,b,False,470,1,15206,testPhase
31,0,T3,t,b,False,253,1,15206,testPhase
32,0,T3,t,b,False,206,1,15206,testPhase
33,0,B0,b,b,True,262,1,15206,testPhase
34,0,A3,a,b,False,278,1,15206,testPhase
35,0,A7,a,b,False,277,1,15206,testPhase
36,0,T0,t,b,False,275,1,15206,testPhase
37,0,T0,t,a,False,727,1,15206,testPhase
38,0,B3,b,b,True,765,1,15206,testPhase
39,0,A5,a,a,True,1141,1,15206,testPhase
40,0,A4,a,a,True,792,1,15206,testPhase
0,0,B7,b,a,False,3838,1,14368,testPhase
1,0,T0,t,b,False,1893,1,14368,testPhase
2,0,T0,t,b,False,1257,1,14368,testPhase
3,0,B2,b,b,True,3338,1,14368,testPhase
4,0,B3,b,a,False,965,1,14368,testPhase
5,0,T3,t,a,False,1117,1,14368,testPhase
6,0,T3,t,a,False,734,1,14368,testPhase
7,0,T4,t,b,False,3199,1,14368,testPhase
8,0,T4,t,b,False,989,1,14368,testPhase
9,0,T2,t,a,False,2547,1,14368,testPhase
10,0,T0,t,b,False,1838,1,14368,testPhase
11,0,A1,a,a,True,1245,1,14368,testPhase
12,0,A0,a,b,False,1615,1,14368,testPhase
13,0,T2,t,a,False,3745,1,14368,testPhase
14,0,A3,a,a,True,1480,1,14368,testPhase
15,0,T1,t,b,False,1894,1,14368,testPhase
16,0,T1,t,b,False,662,1,14368,testPhase
17,0,B6,b,a,False,1407,1,14368,testPhase
18,0,A5,a,b,False,3052,1,14368,testPhase
19,0,T4,t,b,False,1774,1,14368,testPhase
20,0,T1,t,a,False,1540,1,14368,testPhase
21,0,B1,b,b,True,1011,1,14368,testPhase
22,0,T0,t,a,False,1459,1,14368,testPhase
23,0,T0,t,a,False,1915,1,14368,testPhase
24,0,B4,b,a,False,1325,1,14368,testPhase
25,0,T3,t,a,False,2773,1,14368,testPhase
26,0,T1,t,b,False,1246,1,14368,testPhase
27,0,B5,b,a,False,2515,1,14368,testPhase
28,0,B0,b,b,True,2014,1,14368,testPhase
29,0,T1,t,b,False,1001,1,14368,testPhase
30,0,T2,t,b,False,995,1,14368,testPhase
31,0,A4,a,a,True,2666,1,14368,testPhase
32,0,T4,t,b,False,1556,1,14368,testPhase
33,0,T2,t,b,False,6024,1,14368,testPhase
34,0,A7,a,a,True,2091,1,14368,testPhase
35,0,T3,t,a,False,1665,1,14368,testPhase
36,0,T4,t,b,False,1118,1,14368,testPhase
37,0,A2,a,a,True,2733,1,14368,testPhase
38,0,T3,t,a,False,1367,1,14368,testPhase
39,0,T2,t,b,False,849,1,14368,testPhase
40,0,A6,a,b,False,2841,1,14368,testPhase
0,0,T4,t,a,False,7599,1,15211,testPhase
1,0,T4,t,a,False,2169,1,15211,testPhase
2,0,T2,t,b,False,1856,1,15211,testPhase
3,0,A3,a,a,True,939,1,15211,testPhase
4,0,T1,t,a,False,862,1,15211,testPhase
5,0,T3,t,a,False,829,1,15211,testPhase
6,0,T1,t,a,False,845,1,15211,testPhase
7,0,T2,t,b,False,1149,1,15211,testPhase
8,0,T2,t,b,False,787,1,15211,testPhase
9,0,B5,b,b,True,811,1,15211,testPhase
10,0,T0,t,b,False,4930,1,15211,testPhase
11,0,B7,b,a,False,1443,1,15211,testPhase
12,0,B1,b,b,True,3805,1,15211,testPhase
13,0,T1,t,a,False,977,1,15211,testPhase
14,0,T0,t,b,False,4249,1,15211,testPhase
15,0,T4,t,b,False,5392,1,15211,testPhase
16,0,A4,a,a,True,1151,1,15211,testPhase
17,0,T0,t,b,False,4995,1,15211,testPhase
18,0,T4,t,b,False,2768,1,15211,testPhase
19,0,T0,t,b,False,3561,1,15211,testPhase
20,0,A0,a,a,True,1103,1,15211,testPhase
21,0,A6,a,b,False,4384,1,15211,testPhase
22,0,B4,b,a,False,4532,1,15211,testPhase
23,0,B6,b,b,True,2894,1,15211,testPhase
24,0,T4,t,b,False,6548,1,15211,testPhase
25,0,B3,b,b,True,2725,1,15211,testPhase
26,0,A7,a,a,True,3656,1,15211,testPhase
27,0,B2,b,a,False,9924,1,15211,testPhase
28,0,B0,b,b,True,955,1,15211,testPhase
29,0,T2,t,b,False,1728,1,15211,testPhase
30,0,T0,t,b,False,2588,1,15211,testPhase
31,0,T1,t,a,False,1128,1,15211,testPhase
32,0,A2,a,a,True,805,1,15211,testPhase
33,0,T2,t,b,False,8006,1,15211,testPhase
34,0,T1,t,a,False,1400,1,15211,testPhase
35,0,T3,t,a,False,830,1,15211,testPhase
36,0,T3,t,a,False,639,1,15211,testPhase
37,0,A5,a,b,False,2518,1,15211,testPhase
38,0,A1,a,a,True,694,1,15211,testPhase
39,0,T3,t,a,False,718,1,15211,testPhase
40,0,T3,t,a,False,533,1,15211,testPhase
0,0,B5,b,b,True,4154,1,15216,testPhase
1,0,T2,t,b,False,942,1,15216,testPhase
2,0,A6,a,b,False,680,1,15216,testPhase
3,0,A3,a,b,False,1620,1,15216,testPhase
4,0,T3,t,b,False,1241,1,15216,testPhase
5,0,B4,b,b,True,1358,1,15216,testPhase
6,0,T3,t,b,False,944,1,15216,testPhase
7,0,T1,t,a,False,1160,1,15216,testPhase
8,0,T3,t,b,False,1713,1,15216,testPhase
9,0,A2,a,a,True,1085,1,15216,testPhase
10,0,T4,t,a,False,2021,1,15216,testPhase
11,0,T0,t,b,False,1180,1,15216,testPhase
12,0,B2,b,b,True,1582,1,15216,testPhase
13,0,T3,t,b,False,899,1,15216,testPhase
14,0,T1,t,a,False,2506,1,15216,testPhase
15,0,T4,t,a,False,1879,1,15216,testPhase
16,0,B7,b,b,True,1394,1,15216,testPhase
17,0,T2,t,b,False,999,1,15216,testPhase
18,0,A7,a,a,True,1119,1,15216,testPhase
19,0,T1,t,a,False,1264,1,15216,testPhase
20,0,T0,t,a,False,2394,1,15216,testPhase
21,0,T0,t,a,False,1338,1,15216,testPhase
22,0,A0,a,a,True,1257,1,15216,testPhase
23,0,T4,t,a,False,891,1,15216,testPhase
24,0,B0,b,b,True,1181,1,15216,testPhase
25,0,T0,t,a,False,898,1,15216,testPhase
26,0,T1,t,a,False,1892,1,15216,testPhase
27,0,T4,t,b,False,891,1,15216,testPhase
28,0,A5,a,a,True,810,1,15216,testPhase
29,0,T4,t,a,False,898,1,15216,testPhase
30,0,T1,t,a,False,1684,1,15216,testPhase
31,0,A4,a,a,True,977,1,15216,testPhase
32,0,T2,t,b,False,1168,1,15216,testPhase
33,0,B1,b,b,True,1114,1,15216,testPhase
34,0,T2,t,b,False,710,1,15216,testPhase
35,0,A1,a,b,False,1349,1,15216,testPhase
36,0,T3,t,b,False,864,1,15216,testPhase
37,0,B6,b,b,True,1526,1,15216,testPhase
38,0,T0,t,a,False,783,1,15216,testPhase
39,0,T2,t,b,False,1061,1,15216,testPhase
40,0,B3,b,b,True,942,1,15216,testPhase
0,0,T1,t,a,False,2324,1,14369,testPhase
1,0,T3,t,b,False,3216,1,14369,testPhase
2,0,T4,t,b,False,2897,1,14369,testPhase
3,0,A0,a,a,True,1456,1,14369,testPhase
4,0,A7,a,a,True,1692,1,14369,testPhase
5,0,T0,t,a,False,2247,1,14369,testPhase
6,0,A3,a,a,True,1742,1,14369,testPhase
7,0,T3,t,b,False,1572,1,14369,testPhase
8,0,B1,b,b,True,2863,1,14369,testPhase
9,0,T0,t,a,False,1983,1,14369,testPhase
10,0,B3,b,b,True,1632,1,14369,testPhase
11,0,A1,a,b,False,3672,1,14369,testPhase
12,0,T3,t,b,False,8014,1,14369,testPhase
13,0,T2,t,b,False,1413,1,14369,testPhase
14,0,T0,t,a,False,2409,1,14369,testPhase
15,0,T1,t,a,False,1173,1,14369,testPhase
16,0,T0,t,a,False,2043,1,14369,testPhase
17,0,T1,t,a,False,1760,1,14369,testPhase
18,0,T2,t,b,False,2193,1,14369,testPhase
19,0,T4,t,a,False,1438,1,14369,testPhase
20,0,B2,b,a,False,3421,1,14369,testPhase
21,0,B7,b,b,True,893,1,14369,testPhase
22,0,T2,t,b,False,1109,1,14369,testPhase
23,0,T2,t,b,False,1072,1,14369,testPhase
24,0,A6,a,a,True,1209,1,14369,testPhase
25,0,T1,t,a,False,2772,1,14369,testPhase
26,0,A4,a,a,True,1039,1,14369,testPhase
27,0,T4,t,a,False,1202,1,14369,testPhase
28,0,T3,t,b,False,1406,1,14369,testPhase
29,0,T4,t,a,False,3685,1,14369,testPhase
30,0,T1,t,a,False,1443,1,14369,testPhase
31,0,T4,t,a,False,1195,1,14369,testPhase
32,0,T0,t,a,False,2361,1,14369,testPhase
33,0,B4,b,b,True,1589,1,14369,testPhase
34,0,T2,t,b,False,1082,1,14369,testPhase
35,0,A5,a,a,True,1803,1,14369,testPhase
36,0,T3,t,b,False,1374,1,14369,testPhase
37,0,B5,b,a,False,1111,1,14369,testPhase
38,0,B0,b,b,True,1004,1,14369,testPhase
39,0,B6,b,a,False,1478,1,14369,testPhase
40,0,A2,a,a,True,4081,1,14369,testPhase
0,0,B0,b,b,True,5545,1,15227,testPhase
1,0,B5,b,a,False,2386,1,15227,testPhase
2,0,T2,t,a,False,1183,1,15227,testPhase
3,0,T2,t,a,False,978,1,15227,testPhase
4,0,A7,a,a,True,1246,1,15227,testPhase
5,0,T3,t,a,False,1183,1,15227,testPhase
6,0,B4,b,a,False,879,1,15227,testPhase
7,0,T3,t,a,False,778,1,15227,testPhase
8,0,T0,t,a,False,2091,1,15227,testPhase
9,0,B1,b,b,True,1654,1,15227,testPhase
10,0,T4,t,b,False,1145,1,15227,testPhase
11,0,B7,b,a,False,1240,1,15227,testPhase
12,0,T0,t,a,False,1055,1,15227,testPhase
13,0,T0,t,a,False,620,1,15227,testPhase
14,0,T0,t,a,False,542,1,15227,testPhase
15,0,A0,a,b,False,1758,1,15227,testPhase
16,0,A2,a,b,False,741,1,15227,testPhase
17,0,A5,a,a,True,1925,1,15227,testPhase
18,0,T4,t,a,False,995,1,15227,testPhase
19,0,T3,t,b,False,759,1,15227,testPhase
20,0,A1,a,a,True,725,1,15227,testPhase
21,0,T0,t,a,False,487,1,15227,testPhase
22,0,T2,t,a,False,510,1,15227,testPhase
23,0,A4,a,a,True,574,1,15227,testPhase
24,0,T1,t,a,False,396,1,15227,testPhase
25,0,T3,t,a,False,494,1,15227,testPhase
26,0,T1,t,b,False,758,1,15227,testPhase
27,0,B3,b,b,True,1101,1,15227,testPhase
28,0,T2,t,b,False,801,1,15227,testPhase
29,0,T2,t,b,False,1031,1,15227,testPhase
30,0,T1,t,b,False,947,1,15227,testPhase
31,0,A3,a,a,True,678,1,15227,testPhase
32,0,T4,t,b,False,834,1,15227,testPhase
33,0,T4,t,b,False,990,1,15227,testPhase
34,0,B6,b,a,False,624,1,15227,testPhase
35,0,A6,a,a,True,1763,1,15227,testPhase
36,0,T3,t,a,False,2676,1,15227,testPhase
37,0,B2,b,b,True,1662,1,15227,testPhase
38,0,T4,t,b,False,2019,1,15227,testPhase
39,0,T1,t,a,False,2382,1,15227,testPhase
40,0,T1,t,a,False,722,1,15227,testPhase
0,0,B4,b,b,True,5324,1,15232,testPhase
1,0,A7,a,b,False,1546,1,15232,testPhase
2,0,T0,t,a,False,2658,1,15232,testPhase
3,0,T3,t,b,False,1344,1,15232,testPhase
4,0,A1,a,b,False,4214,1,15232,testPhase
5,0,T3,t,a,False,1544,1,15232,testPhase
6,0,T0,t,a,False,1960,1,15232,testPhase
7,0,T1,t,a,False,894,1,15232,testPhase
8,0,A5,a,a,True,2760,1,15232,testPhase
9,0,T1,t,a,False,1210,1,15232,testPhase
10,0,T4,t,b,False,1553,1,15232,testPhase
11,0,T2,t,b,False,2219,1,15232,testPhase
12,0,B7,b,b,True,1112,1,15232,testPhase
13,0,T3,t,b,False,1522,1,15232,testPhase
14,0,T2,t,b,False,1849,1,15232,testPhase
15,0,T4,t,a,False,1951,1,15232,testPhase
16,0,T2,t,b,False,1975,1,15232,testPhase
17,0,T0,t,a,False,7450,1,15232,testPhase
18,0,A4,a,a,True,900,1,15232,testPhase
19,0,A2,a,a,True,999,1,15232,testPhase
20,0,T4,t,b,False,3078,1,15232,testPhase
21,0,T2,t,b,False,1118,1,15232,testPhase
22,0,T0,t,a,False,2862,1,15232,testPhase
23,0,T3,t,a,False,1966,1,15232,testPhase
24,0,B6,b,b,True,1774,1,15232,testPhase
25,0,B5,b,a,False,1245,1,15232,testPhase
26,0,T3,t,b,False,1182,1,15232,testPhase
27,0,T2,t,a,False,974,1,15232,testPhase
28,0,B0,b,a,False,2106,1,15232,testPhase
29,0,B3,b,b,True,7542,1,15232,testPhase
30,0,A6,a,b,False,1046,1,15232,testPhase
31,0,T1,t,a,False,1262,1,15232,testPhase
32,0,T4,t,b,False,1763,1,15232,testPhase
33,0,A3,a,a,True,1518,1,15232,testPhase
34,0,T1,t,a,False,1118,1,15232,testPhase
35,0,T4,t,b,False,1638,1,15232,testPhase
36,0,B2,b,b,True,1093,1,15232,testPhase
37,0,T0,t,a,False,4086,1,15232,testPhase
38,0,A0,a,a,True,982,1,15232,testPhase
39,0,T1,t,a,False,1014,1,15232,testPhase
40,0,B1,b,a,False,2302,1,15232,testPhase
0,0,T2,t,b,False,2697,1,14370,testPhase
1,0,A5,a,b,False,1158,1,14370,testPhase
2,0,T3,t,a,False,851,1,14370,testPhase
3,0,A7,a,a,True,2767,1,14370,testPhase
4,0,T4,t,b,False,6784,1,14370,testPhase
5,0,T3,t,b,False,1097,1,14370,testPhase
6,0,A4,a,a,True,566,1,14370,testPhase
7,0,B0,b,b,True,769,1,14370,testPhase
8,0,T2,t,b,False,745,1,14370,testPhase
9,0,T0,t,b,False,848,1,14370,testPhase
10,0,T0,t,b,False,957,1,14370,testPhase
11,0,B3,b,b,True,966,1,14370,testPhase
12,0,T3,t,b,False,447,1,14370,testPhase
13,0,A2,a,a,True,702,1,14370,testPhase
14,0,T4,t,a,False,1373,1,14370,testPhase
15,0,A0,a,a,True,784,1,14370,testPhase
16,0,B5,b,b,True,1038,1,14370,testPhase
17,0,T1,t,a,False,2022,1,14370,testPhase
18,0,T0,t,a,False,1164,1,14370,testPhase
19,0,T1,t,a,False,673,1,14370,testPhase
20,0,B2,b,b,True,1045,1,14370,testPhase
21,0,T0,t,b,False,997,1,14370,testPhase
22,0,T0,t,a,False,710,1,14370,testPhase
23,0,T3,t,b,False,381,1,14370,testPhase
24,0,T2,t,a,False,382,1,14370,testPhase
25,0,T1,t,a,False,357,1,14370,testPhase
26,0,B6,b,a,False,446,1,14370,testPhase
27,0,T1,t,a,False,422,1,14370,testPhase
28,0,T4,t,a,False,414,1,14370,testPhase
29,0,A3,a,a,True,430,1,14370,testPhase
30,0,T2,t,b,False,702,1,14370,testPhase
31,0,A1,a,b,False,502,1,14370,testPhase
32,0,B7,b,a,False,1132,1,14370,testPhase
33,0,B4,b,a,False,709,1,14370,testPhase
34,0,A6,a,b,False,997,1,14370,testPhase
35,0,T2,t,b,False,788,1,14370,testPhase
36,0,T1,t,a,False,757,1,14370,testPhase
37,0,B1,b,a,False,1070,1,14370,testPhase
38,0,T3,t,a,False,861,1,14370,testPhase
39,0,T4,t,b,False,1083,1,14370,testPhase
40,0,T4,t,b,False,662,1,14370,testPhase
0,0,T0,t,a,False,2148,1,15284,testPhase
1,0,B5,b,b,True,1369,1,15284,testPhase
2,0,T0,t,a,False,900,1,15284,testPhase
3,0,T0,t,a,False,788,1,15284,testPhase
4,0,T2,t,b,False,806,1,15284,testPhase
5,0,B4,b,b,True,909,1,15284,testPhase
6,0,T3,t,a,False,807,1,15284,testPhase
7,0,B2,b,b,True,1183,1,15284,testPhase
8,0,T1,t,a,False,848,1,15284,testPhase
9,0,T3,t,a,False,777,1,15284,testPhase
10,0,T2,t,b,False,1419,1,15284,testPhase
11,0,A3,a,a,True,1455,1,15284,testPhase
12,0,B6,b,b,True,959,1,15284,testPhase
13,0,T2,t,b,False,1047,1,15284,testPhase
14,0,T4,t,a,False,1171,1,15284,testPhase
15,0,A4,a,b,False,1074,1,15284,testPhase
16,0,T3,t,a,False,800,1,15284,testPhase
17,0,T1,t,a,False,1099,1,15284,testPhase
18,0,T4,t,b,False,936,1,15284,testPhase
19,0,A1,a,a,True,795,1,15284,testPhase
20,0,T0,t,b,False,955,1,15284,testPhase
21,0,B7,b,a,False,1562,1,15284,testPhase
22,0,T1,t,a,False,748,1,15284,testPhase
23,0,B1,b,a,False,737,1,15284,testPhase
24,0,A6,a,b,False,1156,1,15284,testPhase
25,0,T2,t,b,False,5917,1,15284,testPhase
26,0,T4,t,b,False,881,1,15284,testPhase
27,0,T4,t,a,False,854,1,15284,testPhase
28,0,A2,a,a,True,630,1,15284,testPhase
29,0,T4,t,b,False,1317,1,15284,testPhase
30,0,T1,t,a,False,678,1,15284,testPhase
31,0,T3,t,a,False,1067,1,15284,testPhase
32,0,T3,t,a,False,1184,1,15284,testPhase
33,0,A0,a,a,True,1192,1,15284,testPhase
34,0,T2,t,b,False,780,1,15284,testPhase
35,0,A7,a,b,False,789,1,15284,testPhase
36,0,B3,b,b,True,893,1,15284,testPhase
37,0,B0,b,b,True,1192,1,15284,testPhase
38,0,T1,t,a,False,895,1,15284,testPhase
39,0,T0,t,b,False,1059,1,15284,testPhase
40,0,A5,a,a,True,897,1,15284,testPhase
0,0,A5,a,a,True,16995,1,15289,testPhase
1,0,T2,t,a,False,3023,1,15289,testPhase
2,0,T4,t,b,False,1541,1,15289,testPhase
3,0,T1,t,a,False,1130,1,15289,testPhase
4,0,T3,t,a,False,1126,1,15289,testPhase
5,0,T0,t,b,False,2655,1,15289,testPhase
6,0,A3,a,a,True,1263,1,15289,testPhase
7,0,T2,t,a,False,3999,1,15289,testPhase
8,0,B5,b,a,False,2875,1,15289,testPhase
9,0,B3,b,b,True,8913,1,15289,testPhase
10,0,T3,t,a,False,1789,1,15289,testPhase
11,0,A4,a,b,False,4459,1,15289,testPhase
12,0,T1,t,a,False,1145,1,15289,testPhase
13,0,B0,b,b,True,10536,1,15289,testPhase
14,0,B4,b,a,False,8352,1,15289,testPhase
15,0,A7,a,b,False,4549,1,15289,testPhase
16,0,T4,t,b,False,3683,1,15289,testPhase
17,0,B1,b,b,True,1688,1,15289,testPhase
18,0,A0,a,a,True,1194,1,15289,testPhase
19,0,A1,a,a,True,2189,1,15289,testPhase
20,0,T3,t,a,False,877,1,15289,testPhase
21,0,A2,a,a,True,902,1,15289,testPhase
22,0,A6,a,a,True,6598,1,15289,testPhase
23,0,T1,t,a,False,918,1,15289,testPhase
24,0,B2,b,b,True,2248,1,15289,testPhase
25,0,T4,t,b,False,1725,1,15289,testPhase
26,0,T4,t,b,False,4645,1,15289,testPhase
27,0,B6,b,a,False,2430,1,15289,testPhase
28,0,T2,t,b,False,5796,1,15289,testPhase
29,0,T3,t,a,False,1046,1,15289,testPhase
30,0,T4,t,b,False,2879,1,15289,testPhase
31,0,T0,t,a,False,1867,1,15289,testPhase
32,0,T0,t,b,False,1527,1,15289,testPhase
33,0,T1,t,a,False,2011,1,15289,testPhase
34,0,T1,t,a,False,1118,1,15289,testPhase
35,0,T0,t,a,False,2039,1,15289,testPhase
36,0,T2,t,b,False,1854,1,15289,testPhase
37,0,T2,t,b,False,7191,1,15289,testPhase
38,0,B7,b,a,False,1617,1,15289,testPhase
39,0,T3,t,a,False,1149,1,15289,testPhase
40,0,T0,t,b,False,1555,1,15289,testPhase
0,0,T0,t,a,False,6011,1,14371,testPhase
1,0,T3,t,a,False,1498,1,14371,testPhase
2,0,B1,b,b,True,3389,1,14371,testPhase
3,0,T0,t,a,False,3452,1,14371,testPhase
4,0,T4,t,a,False,4509,1,14371,testPhase
5,0,A2,a,a,True,1534,1,14371,testPhase
6,0,T1,t,a,False,982,1,14371,testPhase
7,0,T3,t,a,False,894,1,14371,testPhase
8,0,T1,t,a,False,940,1,14371,testPhase
9,0,T2,t,b,False,1110,1,14371,testPhase
10,0,B5,b,b,True,1078,1,14371,testPhase
11,0,T4,t,b,False,2814,1,14371,testPhase
12,0,A7,a,b,False,1286,1,14371,testPhase
13,0,T0,t,b,False,3558,1,14371,testPhase
14,0,T0,t,b,False,1854,1,14371,testPhase
15,0,B2,b,b,True,1182,1,14371,testPhase
16,0,T1,t,b,False,1077,1,14371,testPhase
17,0,T4,t,b,False,1253,1,14371,testPhase
18,0,T2,t,b,False,1237,1,14371,testPhase
19,0,A6,a,b,False,1332,1,14371,testPhase
20,0,B4,b,b,True,2037,1,14371,testPhase
21,0,T1,t,a,False,1021,1,14371,testPhase
22,0,B3,b,b,True,1597,1,14371,testPhase
23,0,A3,a,a,True,821,1,14371,testPhase
24,0,T4,t,b,False,1446,1,14371,testPhase
25,0,T3,t,a,False,1030,1,14371,testPhase
26,0,T3,t,a,False,716,1,14371,testPhase
27,0,T0,t,a,False,3286,1,14371,testPhase
28,0,T2,t,b,False,1035,1,14371,testPhase
29,0,T4,t,b,False,2495,1,14371,testPhase
30,0,B0,b,b,True,1918,1,14371,testPhase
31,0,T2,t,b,False,1573,1,14371,testPhase
32,0,T3,t,a,False,869,1,14371,testPhase
33,0,B7,b,b,True,1966,1,14371,testPhase
34,0,T2,t,b,False,2046,1,14371,testPhase
35,0,A0,a,a,True,1029,1,14371,testPhase
36,0,T1,t,a,False,1742,1,14371,testPhase
37,0,A1,a,a,True,1062,1,14371,testPhase
38,0,B6,b,b,True,2502,1,14371,testPhase
39,0,A5,a,a,True,1517,1,14371,testPhase
40,0,A4,a,a,True,1510,1,14371,testPhase
0,0,T2,t,a,False,2666,1,15294,testPhase
1,0,B2,b,b,True,633,1,15294,testPhase
2,0,T1,t,a,False,429,1,15294,testPhase
3,0,T1,t,a,False,574,1,15294,testPhase
4,0,B4,b,b,True,969,1,15294,testPhase
5,0,T1,t,a,False,511,1,15294,testPhase
6,0,B3,b,a,False,1030,1,15294,testPhase
7,0,A1,a,b,False,597,1,15294,testPhase
8,0,T3,t,a,False,710,1,15294,testPhase
9,0,A5,a,b,False,635,1,15294,testPhase
10,0,T0,t,a,False,497,1,15294,testPhase
11,0,T4,t,b,False,1555,1,15294,testPhase
12,0,T4,t,a,False,590,1,15294,testPhase
13,0,T0,t,a,False,565,1,15294,testPhase
14,0,T3,t,b,False,483,1,15294,testPhase
15,0,T4,t,a,False,406,1,15294,testPhase
16,0,T3,t,a,False,486,1,15294,testPhase
17,0,B5,b,b,True,390,1,15294,testPhase
18,0,T4,t,a,False,574,1,15294,testPhase
19,0,T0,t,a,False,438,1,15294,testPhase
20,0,T0,t,a,False,446,1,15294,testPhase
21,0,A3,a,a,True,382,1,15294,testPhase
22,0,T2,t,b,False,526,1,15294,testPhase
23,0,T1,t,a,False,597,1,15294,testPhase
24,0,T2,t,a,False,493,1,15294,testPhase
25,0,T0,t,a,False,460,1,15294,testPhase
26,0,A0,a,a,True,537,1,15294,testPhase
27,0,B0,b,a,False,500,1,15294,testPhase
28,0,T2,t,b,False,461,1,15294,testPhase
29,0,B1,b,b,True,598,1,15294,testPhase
30,0,A6,a,a,True,425,1,15294,testPhase
31,0,T2,t,a,False,635,1,15294,testPhase
32,0,A7,a,a,True,470,1,15294,testPhase
33,0,B7,b,b,True,1109,1,15294,testPhase
34,0,T4,t,a,False,724,1,15294,testPhase
35,0,B6,b,a,False,566,1,15294,testPhase
36,0,T3,t,a,False,573,1,15294,testPhase
37,0,T3,t,a,False,1078,1,15294,testPhase
38,0,A4,a,a,True,558,1,15294,testPhase
39,0,A2,a,a,True,536,1,15294,testPhase
40,0,T1,t,a,False,514,1,15294,testPhase
0,0,T4,t,b,False,2875,1,15299,testPhase
1,0,T2,t,b,False,2997,1,15299,testPhase
2,0,T0,t,a,False,2063,1,15299,testPhase
3,0,B2,b,b,True,1102,1,15299,testPhase
4,0,B0,b,b,True,1125,1,15299,testPhase
5,0,A6,a,b,False,1197,1,15299,testPhase
6,0,T1,t,a,False,1094,1,15299,testPhase
7,0,T3,t,a,False,1037,1,15299,testPhase
8,0,B7,b,b,True,1772,1,15299,testPhase
9,0,B3,b,b,True,1052,1,15299,testPhase
10,0,T0,t,b,False,718,1,15299,testPhase
11,0,B6,b,b,True,1102,1,15299,testPhase
12,0,T4,t,a,False,972,1,15299,testPhase
13,0,T1,t,a,False,1023,1,15299,testPhase
14,0,T2,t,b,False,1442,1,15299,testPhase
15,0,A2,a,a,True,1206,1,15299,testPhase
16,0,T4,t,b,False,1487,1,15299,testPhase
17,0,A1,a,a,True,1117,1,15299,testPhase
18,0,T2,t,b,False,1228,1,15299,testPhase
19,0,A0,a,a,True,2017,1,15299,testPhase
20,0,A7,a,b,False,1074,1,15299,testPhase
21,0,B4,b,b,True,1328,1,15299,testPhase
22,0,T1,t,a,False,1102,1,15299,testPhase
23,0,T1,t,a,False,1047,1,15299,testPhase
24,0,T0,t,b,False,2078,1,15299,testPhase
25,0,T2,t,b,False,2510,1,15299,testPhase
26,0,B5,b,b,True,1959,1,15299,testPhase
27,0,T2,t,b,False,1469,1,15299,testPhase
28,0,A3,a,a,True,925,1,15299,testPhase
29,0,T1,t,a,False,1357,1,15299,testPhase
30,0,T4,t,a,False,854,1,15299,testPhase
31,0,T4,t,b,False,1070,1,15299,testPhase
32,0,A5,a,a,True,2326,1,15299,testPhase
33,0,T3,t,a,False,1382,1,15299,testPhase
34,0,T3,t,a,False,893,1,15299,testPhase
35,0,T0,t,b,False,1309,1,15299,testPhase
36,0,B1,b,b,True,1046,1,15299,testPhase
37,0,T3,t,a,False,1213,1,15299,testPhase
38,0,T3,t,a,False,900,1,15299,testPhase
39,0,T0,t,a,False,2822,1,15299,testPhase
40,0,A4,a,b,False,1023,1,15299,testPhase
0,0,B7,b,a,False,2432,1,14372,testPhase
1,0,T0,t,a,False,1556,1,14372,testPhase
2,0,T1,t,a,False,846,1,14372,testPhase
3,0,T3,t,b,False,1213,1,14372,testPhase
4,0,T3,t,b,False,804,1,14372,testPhase
5,0,A5,a,b,False,1536,1,14372,testPhase
6,0,A7,a,a,True,1209,1,14372,testPhase
7,0,T4,t,b,False,1633,1,14372,testPhase
8,0,T1,t,a,False,819,1,14372,testPhase
9,0,B2,b,a,False,1887,1,14372,testPhase
10,0,T2,t,b,False,667,1,14372,testPhase
11,0,T2,t,a,False,625,1,14372,testPhase
12,0,B1,b,b,True,1217,1,14372,testPhase
13,0,B6,b,a,False,1277,1,14372,testPhase
14,0,T0,t,b,False,1729,1,14372,testPhase
15,0,T4,t,a,False,1219,1,14372,testPhase
16,0,T0,t,b,False,898,1,14372,testPhase
17,0,B3,b,b,True,2605,1,14372,testPhase
18,0,T0,t,a,False,885,1,14372,testPhase
19,0,T3,t,b,False,1119,1,14372,testPhase
20,0,B5,b,b,True,1106,1,14372,testPhase
21,0,T1,t,a,False,829,1,14372,testPhase
22,0,A1,a,b,False,824,1,14372,testPhase
23,0,T2,t,a,False,717,1,14372,testPhase
24,0,T1,t,a,False,1408,1,14372,testPhase
25,0,T4,t,a,False,1813,1,14372,testPhase
26,0,A4,a,b,False,1377,1,14372,testPhase
27,0,A6,a,a,True,776,1,14372,testPhase
28,0,T4,t,a,False,822,1,14372,testPhase
29,0,T2,t,b,False,645,1,14372,testPhase
30,0,T1,t,a,False,1219,1,14372,testPhase
31,0,A3,a,a,True,1180,1,14372,testPhase
32,0,T2,t,b,False,654,1,14372,testPhase
33,0,T3,t,a,False,1543,1,14372,testPhase
34,0,B0,b,a,False,1307,1,14372,testPhase
35,0,A2,a,a,True,924,1,14372,testPhase
36,0,T4,t,b,False,1117,1,14372,testPhase
37,0,B4,b,a,False,645,1,14372,testPhase
38,0,T0,t,b,False,517,1,14372,testPhase
39,0,A0,a,b,False,718,1,14372,testPhase
40,0,T3,t,a,False,1039,1,14372,testPhase
0,0,T4,t,a,False,1134,1,15304,testPhase
1,0,T2,t,b,False,956,1,15304,testPhase
2,0,B5,b,b,True,1661,1,15304,testPhase
3,0,T0,t,a,False,1101,1,15304,testPhase
4,0,T4,t,a,False,1881,1,15304,testPhase
5,0,A7,a,a,True,1024,1,15304,testPhase
6,0,T4,t,a,False,1750,1,15304,testPhase
7,0,T3,t,b,False,1749,1,15304,testPhase
8,0,B7,b,b,True,878,1,15304,testPhase
9,0,T0,t,a,False,968,1,15304,testPhase
10,0,T4,t,a,False,1430,1,15304,testPhase
11,0,T0,t,a,False,1029,1,15304,testPhase
12,0,B4,b,b,True,898,1,15304,testPhase
13,0,T0,t,a,False,768,1,15304,testPhase
14,0,T2,t,b,False,1077,1,15304,testPhase
15,0,T4,t,a,False,902,1,15304,testPhase
16,0,B6,b,b,True,1062,1,15304,testPhase
17,0,T1,t,a,False,718,1,15304,testPhase
18,0,T2,t,b,False,1078,1,15304,testPhase
19,0,T1,t,a,False,1015,1,15304,testPhase
20,0,A2,a,a,True,1093,1,15304,testPhase
21,0,B1,b,b,True,1092,1,15304,testPhase
22,0,T0,t,a,False,1053,1,15304,testPhase
23,0,B3,b,b,True,983,1,15304,testPhase
24,0,T3,t,a,False,1215,1,15304,testPhase
25,0,A4,a,a,True,1208,1,15304,testPhase
26,0,T3,t,b,False,1601,1,15304,testPhase
27,0,A3,a,b,False,1294,1,15304,testPhase
28,0,A5,a,a,True,1574,1,15304,testPhase
29,0,T3,t,b,False,1327,1,15304,testPhase
30,0,T2,t,b,False,1631,1,15304,testPhase
31,0,T1,t,a,False,1046,1,15304,testPhase
32,0,A6,a,a,True,1126,1,15304,testPhase
33,0,B0,b,b,True,1116,1,15304,testPhase
34,0,T2,t,b,False,1484,1,15304,testPhase
35,0,A1,a,a,True,1324,1,15304,testPhase
36,0,T1,t,a,False,902,1,15304,testPhase
37,0,A0,a,a,True,870,1,15304,testPhase
38,0,T3,t,a,False,1758,1,15304,testPhase
39,0,B2,b,b,True,1205,1,15304,testPhase
40,0,T1,t,a,False,941,1,15304,testPhase
0,0,T4,t,b,False,1493,1,15309,testPhase
1,0,T2,t,b,False,13229,1,15309,testPhase
2,0,A3,a,a,True,1138,1,15309,testPhase
3,0,B2,b,b,True,2382,1,15309,testPhase
4,0,A7,a,a,True,3590,1,15309,testPhase
5,0,T2,t,a,False,1658,1,15309,testPhase
6,0,T0,t,a,False,1022,1,15309,testPhase
7,0,A0,a,b,False,2270,1,15309,testPhase
8,0,T0,t,a,False,1239,1,15309,testPhase
9,0,T1,t,b,False,5220,1,15309,testPhase
10,0,T2,t,a,False,7414,1,15309,testPhase
11,0,T3,t,b,False,4293,1,15309,testPhase
12,0,A2,a,b,False,1541,1,15309,testPhase
13,0,T0,t,a,False,1782,1,15309,testPhase
14,0,T4,t,b,False,2000,1,15309,testPhase
15,0,A5,a,a,True,1262,1,15309,testPhase
16,0,A4,a,a,True,960,1,15309,testPhase
17,0,T0,t,a,False,1742,1,15309,testPhase
18,0,T2,t,b,False,1286,1,15309,testPhase
19,0,B5,b,b,True,3198,1,15309,testPhase
20,0,T4,t,b,False,1336,1,15309,testPhase
21,0,B6,b,a,False,996,1,15309,testPhase
22,0,T4,t,b,False,1262,1,15309,testPhase
23,0,A6,a,b,False,1485,1,15309,testPhase
24,0,B0,b,b,True,2894,1,15309,testPhase
25,0,B1,b,a,False,1470,1,15309,testPhase
26,0,T2,t,b,False,4545,1,15309,testPhase
27,0,T4,t,b,False,1740,1,15309,testPhase
28,0,T3,t,a,False,4857,1,15309,testPhase
29,0,B3,b,b,True,3333,1,15309,testPhase
30,0,B7,b,a,False,1388,1,15309,testPhase
31,0,T1,t,a,False,2524,1,15309,testPhase
32,0,T1,t,a,False,751,1,15309,testPhase
33,0,T3,t,b,False,1909,1,15309,testPhase
34,0,T3,t,b,False,901,1,15309,testPhase
35,0,T0,t,a,False,869,1,15309,testPhase
36,0,T1,t,b,False,838,1,15309,testPhase
37,0,B4,b,b,True,774,1,15309,testPhase
38,0,T1,t,b,False,807,1,15309,testPhase
39,0,T3,t,b,False,1582,1,15309,testPhase
40,0,A1,a,a,True,1714,1,15309,testPhase
0,0,T4,t,b,False,14939,1,14373,testPhase
1,0,T4,t,a,False,9156,1,14373,testPhase
2,0,A5,a,b,False,2348,1,14373,testPhase
3,0,T0,t,b,False,2359,1,14373,testPhase
4,0,T0,t,b,False,4406,1,14373,testPhase
5,0,T3,t,a,False,1117,1,14373,testPhase
6,0,B7,b,b,True,2932,1,14373,testPhase
7,0,A7,a,a,True,1989,1,14373,testPhase
8,0,T2,t,b,False,62182,1,14373,testPhase
9,0,T3,t,a,False,1270,1,14373,testPhase
10,0,A6,a,a,True,2317,1,14373,testPhase
11,0,T3,t,a,False,1091,1,14373,testPhase
12,0,T0,t,b,False,6566,1,14373,testPhase
13,0,T2,t,b,False,1749,1,14373,testPhase
14,0,T4,t,a,False,1856,1,14373,testPhase
15,0,A0,a,a,True,1032,1,14373,testPhase
16,0,T1,t,a,False,1045,1,14373,testPhase
17,0,A4,a,a,True,5174,1,14373,testPhase
18,0,T1,t,a,False,1006,1,14373,testPhase
19,0,T1,t,a,False,987,1,14373,testPhase
20,0,T4,t,a,False,5491,1,14373,testPhase
21,0,T0,t,b,False,3264,1,14373,testPhase
22,0,T2,t,b,False,3806,1,14373,testPhase
23,0,B1,b,b,True,2160,1,14373,testPhase
24,0,A3,a,a,True,1104,1,14373,testPhase
25,0,B4,b,b,True,1572,1,14373,testPhase
26,0,B6,b,a,False,9893,1,14373,testPhase
27,0,B2,b,a,False,9096,1,14373,testPhase
28,0,T3,t,a,False,1151,1,14373,testPhase
29,0,T2,t,b,False,2463,1,14373,testPhase
30,0,T3,t,a,False,1128,1,14373,testPhase
31,0,A1,a,a,True,1009,1,14373,testPhase
32,0,T2,t,b,False,6909,1,14373,testPhase
33,0,T4,t,a,False,2425,1,14373,testPhase
34,0,B0,b,a,False,1462,1,14373,testPhase
35,0,T1,t,a,False,1288,1,14373,testPhase
36,0,A2,a,a,True,1153,1,14373,testPhase
37,0,B5,b,b,True,4047,1,14373,testPhase
38,0,T1,t,a,False,1205,1,14373,testPhase
39,0,B3,b,a,False,26326,1,14373,testPhase
40,0,T0,t,b,False,2317,1,14373,testPhase
0,0,A0,a,b,False,2549,1,15481,testPhase
1,0,B2,b,a,False,1925,1,15481,testPhase
2,0,T0,t,b,False,1491,1,15481,testPhase
3,0,B1,b,b,True,703,1,15481,testPhase
4,0,T3,t,a,False,994,1,15481,testPhase
5,0,T3,t,a,False,1321,1,15481,testPhase
6,0,T1,t,b,False,886,1,15481,testPhase
7,0,T4,t,a,False,1031,1,15481,testPhase
8,0,T4,t,a,False,1069,1,15481,testPhase
9,0,A3,a,b,False,1096,1,15481,testPhase
10,0,A5,a,a,True,684,1,15481,testPhase
11,0,T4,t,a,False,1191,1,15481,testPhase
12,0,T2,t,b,False,689,1,15481,testPhase
13,0,T1,t,a,False,1014,1,15481,testPhase
14,0,T2,t,b,False,870,1,15481,testPhase
15,0,B4,b,a,False,1138,1,15481,testPhase
16,0,T4,t,b,False,342,1,15481,testPhase
17,0,T1,t,a,False,1809,1,15481,testPhase
18,0,T0,t,b,False,947,1,15481,testPhase
19,0,A6,a,b,False,1718,1,15481,testPhase
20,0,T0,t,a,False,634,1,15481,testPhase
21,0,T4,t,b,False,815,1,15481,testPhase
22,0,T3,t,a,False,752,1,15481,testPhase
23,0,T0,t,b,False,1087,1,15481,testPhase
24,0,T2,t,b,False,1125,1,15481,testPhase
25,0,A7,a,a,True,518,1,15481,testPhase
26,0,T1,t,b,False,341,1,15481,testPhase
27,0,B3,b,a,False,496,1,15481,testPhase
28,0,B7,b,a,False,607,1,15481,testPhase
29,0,T0,t,a,False,594,1,15481,testPhase
30,0,T3,t,b,False,398,1,15481,testPhase
31,0,T1,t,b,False,1165,1,15481,testPhase
32,0,B5,b,b,True,774,1,15481,testPhase
33,0,T3,t,b,False,870,1,15481,testPhase
34,0,A1,a,b,False,374,1,15481,testPhase
35,0,A2,a,a,True,462,1,15481,testPhase
36,0,B0,b,b,True,302,1,15481,testPhase
37,0,B6,b,a,False,374,1,15481,testPhase
38,0,A4,a,b,False,633,1,15481,testPhase
39,0,T2,t,b,False,688,1,15481,testPhase
40,0,T2,t,a,False,520,1,15481,testPhase
0,0,B6,b,b,True,2070,1,15484,testPhase
1,0,T4,t,b,False,2228,1,15484,testPhase
2,0,T1,t,a,False,874,1,15484,testPhase
3,0,A2,a,a,True,782,1,15484,testPhase
4,0,T2,t,b,False,937,1,15484,testPhase
5,0,T0,t,a,False,5475,1,15484,testPhase
6,0,B2,b,b,True,1152,1,15484,testPhase
7,0,T0,t,a,False,1159,1,15484,testPhase
8,0,T1,t,a,False,846,1,15484,testPhase
9,0,T2,t,b,False,954,1,15484,testPhase
10,0,T2,t,b,False,802,1,15484,testPhase
11,0,B0,b,b,True,1549,1,15484,testPhase
12,0,B5,b,b,True,1030,1,15484,testPhase
13,0,T2,t,b,False,998,1,15484,testPhase
14,0,B4,b,b,True,1277,1,15484,testPhase
15,0,T1,t,a,False,844,1,15484,testPhase
16,0,A7,a,a,True,2553,1,15484,testPhase
17,0,A5,a,a,True,829,1,15484,testPhase
18,0,T0,t,a,False,772,1,15484,testPhase
19,0,T2,t,b,False,858,1,15484,testPhase
20,0,T3,t,b,False,1182,1,15484,testPhase
21,0,A6,a,b,False,1719,1,15484,testPhase
22,0,T1,t,a,False,709,1,15484,testPhase
23,0,T3,t,b,False,1248,1,15484,testPhase
24,0,A0,a,a,True,810,1,15484,testPhase
25,0,T4,t,b,False,3233,1,15484,testPhase
26,0,T4,t,a,False,859,1,15484,testPhase
27,0,B7,b,b,True,2991,1,15484,testPhase
28,0,B1,b,a,False,744,1,15484,testPhase
29,0,T3,t,b,False,916,1,15484,testPhase
30,0,B3,b,a,False,665,1,15484,testPhase
31,0,T4,t,a,False,744,1,15484,testPhase
32,0,T3,t,b,False,749,1,15484,testPhase
33,0,T0,t,a,False,878,1,15484,testPhase
34,0,T3,t,b,False,869,1,15484,testPhase
35,0,T0,t,a,False,835,1,15484,testPhase
36,0,A3,a,b,False,1458,1,15484,testPhase
37,0,T1,t,a,False,1220,1,15484,testPhase
38,0,T4,t,b,False,1061,1,15484,testPhase
39,0,A4,a,a,True,829,1,15484,testPhase
40,0,A1,a,b,False,816,1,15484,testPhase
0,0,T2,t,b,False,2210,1,15487,testPhase
1,0,B4,b,b,True,3308,1,15487,testPhase
2,0,B0,b,a,False,2896,1,15487,testPhase
3,0,A1,a,b,False,6469,1,15487,testPhase
4,0,T0,t,b,False,3020,1,15487,testPhase
5,0,A5,a,a,True,2830,1,15487,testPhase
6,0,T4,t,a,False,1719,1,15487,testPhase
7,0,T1,t,a,False,914,1,15487,testPhase
8,0,T1,t,a,False,966,1,15487,testPhase
9,0,T1,t,a,False,1973,1,15487,testPhase
10,0,B1,b,b,True,3763,1,15487,testPhase
11,0,T3,t,b,False,1345,1,15487,testPhase
12,0,B5,b,b,True,3199,1,15487,testPhase
13,0,T0,t,a,False,4142,1,15487,testPhase
14,0,T3,t,b,False,1659,1,15487,testPhase
15,0,T4,t,a,False,5752,1,15487,testPhase
16,0,T3,t,b,False,1166,1,15487,testPhase
17,0,A4,a,a,True,2995,1,15487,testPhase
18,0,B2,b,a,False,1238,1,15487,testPhase
19,0,A0,a,a,True,1963,1,15487,testPhase
20,0,A6,a,b,False,4677,1,15487,testPhase
21,0,T0,t,a,False,2816,1,15487,testPhase
22,0,T4,t,b,False,2355,1,15487,testPhase
23,0,B7,b,a,False,2308,1,15487,testPhase
24,0,T0,t,a,False,2137,1,15487,testPhase
25,0,T3,t,b,False,1220,1,15487,testPhase
26,0,A7,a,b,False,1236,1,15487,testPhase
27,0,T4,t,a,False,1619,1,15487,testPhase
28,0,T2,t,b,False,3102,1,15487,testPhase
29,0,T0,t,b,False,1427,1,15487,testPhase
30,0,A3,a,b,False,1623,1,15487,testPhase
31,0,B6,b,a,False,1655,1,15487,testPhase
32,0,B3,b,a,False,3056,1,15487,testPhase
33,0,T1,t,a,False,1349,1,15487,testPhase
34,0,T2,t,a,False,1833,1,15487,testPhase
35,0,T2,t,a,False,1438,1,15487,testPhase
36,0,A2,a,a,True,2206,1,15487,testPhase
37,0,T1,t,a,False,1326,1,15487,testPhase
38,0,T3,t,b,False,1600,1,15487,testPhase
39,0,T4,t,b,False,1587,1,15487,testPhase
40,0,T2,t,a,False,1013,1,15487,testPhase
0,0,A4,a,a,True,4164,1,14374,testPhase
1,0,A5,a,a,True,8797,1,14374,testPhase
2,0,T1,t,a,False,1283,1,14374,testPhase
3,0,T3,t,a,False,1875,1,14374,testPhase
4,0,A2,a,a,True,954,1,14374,testPhase
5,0,T2,t,b,False,1161,1,14374,testPhase
6,0,T3,t,a,False,1227,1,14374,testPhase
7,0,T0,t,a,False,1458,1,14374,testPhase
8,0,B7,b,b,True,999,1,14374,testPhase
9,0,T1,t,a,False,866,1,14374,testPhase
10,0,B4,b,b,True,1631,1,14374,testPhase
11,0,A1,a,b,False,3018,1,14374,testPhase
12,0,T3,t,b,False,1192,1,14374,testPhase
13,0,T3,t,b,False,1559,1,14374,testPhase
14,0,T2,t,a,False,2451,1,14374,testPhase
15,0,T1,t,a,False,1083,1,14374,testPhase
16,0,B6,b,b,True,973,1,14374,testPhase
17,0,T2,t,b,False,1354,1,14374,testPhase
18,0,T1,t,a,False,1255,1,14374,testPhase
19,0,T4,t,b,False,1485,1,14374,testPhase
20,0,T3,t,a,False,1086,1,14374,testPhase
21,0,A0,a,a,True,1044,1,14374,testPhase
22,0,B1,b,b,True,1635,1,14374,testPhase
23,0,B5,b,a,False,1284,1,14374,testPhase
24,0,T0,t,a,False,996,1,14374,testPhase
25,0,T0,t,a,False,1250,1,14374,testPhase
26,0,B3,b,b,True,1181,1,14374,testPhase
27,0,T4,t,b,False,2171,1,14374,testPhase
28,0,T0,t,a,False,1038,1,14374,testPhase
29,0,T1,t,a,False,991,1,14374,testPhase
30,0,A6,a,b,False,2025,1,14374,testPhase
31,0,T2,t,a,False,1140,1,14374,testPhase
32,0,B2,b,a,False,738,1,14374,testPhase
33,0,A7,a,b,False,859,1,14374,testPhase
34,0,T4,t,b,False,947,1,14374,testPhase
35,0,T4,t,b,False,1430,1,14374,testPhase
36,0,T4,t,b,False,1285,1,14374,testPhase
37,0,T2,t,a,False,725,1,14374,testPhase
38,0,B0,b,b,True,1447,1,14374,testPhase
39,0,A3,a,a,True,1192,1,14374,testPhase
40,0,T0,t,a,False,1025,1,14374,testPhase
0,0,T0,t,a,False,4695,1,15490,testPhase
1,0,T4,t,a,False,2252,1,15490,testPhase
2,0,T1,t,a,False,953,1,15490,testPhase
3,0,T1,t,a,False,778,1,15490,testPhase
4,0,T2,t,b,False,1883,1,15490,testPhase
5,0,B2,b,b,True,1693,1,15490,testPhase
6,0,B1,b,b,True,1984,1,15490,testPhase
7,0,T2,t,b,False,2025,1,15490,testPhase
8,0,T2,t,b,False,1784,1,15490,testPhase
9,0,B7,b,b,True,2114,1,15490,testPhase
10,0,A4,a,a,True,2047,1,15490,testPhase
11,0,B5,b,b,True,1555,1,15490,testPhase
12,0,A0,a,a,True,906,1,15490,testPhase
13,0,T0,t,a,False,1447,1,15490,testPhase
14,0,A7,a,b,False,1415,1,15490,testPhase
15,0,T3,t,a,False,1487,1,15490,testPhase
16,0,B0,b,b,True,1808,1,15490,testPhase
17,0,T1,t,a,False,903,1,15490,testPhase
18,0,T0,t,a,False,3495,1,15490,testPhase
19,0,T4,t,a,False,1271,1,15490,testPhase
20,0,T3,t,a,False,1133,1,15490,testPhase
21,0,T4,t,a,False,2554,1,15490,testPhase
22,0,T2,t,b,False,852,1,15490,testPhase
23,0,T2,t,b,False,2095,1,15490,testPhase
24,0,A5,a,a,True,1347,1,15490,testPhase
25,0,T3,t,a,False,1085,1,15490,testPhase
26,0,B6,b,b,True,1205,1,15490,testPhase
27,0,A2,a,a,True,1084,1,15490,testPhase
28,0,T4,t,a,False,1908,1,15490,testPhase
29,0,T1,t,a,False,999,1,15490,testPhase
30,0,A6,a,a,True,2983,1,15490,testPhase
31,0,T0,t,a,False,1594,1,15490,testPhase
32,0,A1,a,a,True,1309,1,15490,testPhase
33,0,T3,t,b,False,3854,1,15490,testPhase
34,0,T3,t,b,False,4526,1,15490,testPhase
35,0,T1,t,a,False,835,1,15490,testPhase
36,0,T0,t,a,False,1971,1,15490,testPhase
37,0,B3,b,b,True,746,1,15490,testPhase
38,0,A3,a,b,False,2042,1,15490,testPhase
39,0,T4,t,a,False,1131,1,15490,testPhase
40,0,B4,b,b,True,1011,1,15490,testPhase
0,0,T1,t,a,False,3208,1,15493,testPhase
1,0,B6,b,b,True,7843,1,15493,testPhase
2,0,T0,t,a,False,4898,1,15493,testPhase
3,0,T3,t,a,False,1381,1,15493,testPhase
4,0,A7,a,a,True,2936,1,15493,testPhase
5,0,T3,t,a,False,1333,1,15493,testPhase
6,0,B5,b,b,True,2944,1,15493,testPhase
7,0,T1,t,a,False,1130,1,15493,testPhase
8,0,T2,t,b,False,1644,1,15493,testPhase
9,0,T1,t,a,False,1047,1,15493,testPhase
10,0,A2,a,a,True,1335,1,15493,testPhase
11,0,T0,t,a,False,4833,1,15493,testPhase
12,0,T3,t,a,False,1303,1,15493,testPhase
13,0,T2,t,b,False,2740,1,15493,testPhase
14,0,T2,t,b,False,1261,1,15493,testPhase
15,0,T4,t,a,False,4153,1,15493,testPhase
16,0,B4,b,b,True,1590,1,15493,testPhase
17,0,A0,a,a,True,1368,1,15493,testPhase
18,0,A5,a,b,False,2430,1,15493,testPhase
19,0,B2,b,a,False,3709,1,15493,testPhase
20,0,B0,b,b,True,3893,1,15493,testPhase
21,0,A3,a,a,True,986,1,15493,testPhase
22,0,B1,b,a,False,2031,1,15493,testPhase
23,0,T1,t,a,False,1309,1,15493,testPhase
24,0,T0,t,b,False,2510,1,15493,testPhase
25,0,T4,t,b,False,1629,1,15493,testPhase
26,0,T0,t,b,False,1846,1,15493,testPhase
27,0,T1,t,a,False,1689,1,15493,testPhase
28,0,T4,t,b,False,1811,1,15493,testPhase
29,0,T3,t,a,False,1278,1,15493,testPhase
30,0,T0,t,b,False,1195,1,15493,testPhase
31,0,A6,a,a,True,5208,1,15493,testPhase
32,0,B7,b,b,True,1707,1,15493,testPhase
33,0,T4,t,b,False,4613,1,15493,testPhase
34,0,T2,t,b,False,1665,1,15493,testPhase
35,0,A4,a,a,True,2141,1,15493,testPhase
36,0,B3,b,b,True,1545,1,15493,testPhase
37,0,A1,a,a,True,1142,1,15493,testPhase
38,0,T4,t,b,False,1803,1,15493,testPhase
39,0,T2,t,b,False,4101,1,15493,testPhase
40,0,T3,t,a,False,1263,1,15493,testPhase
0,0,T4,t,b,False,2008,1,15521,testPhase
1,0,T3,t,a,False,877,1,15521,testPhase
2,0,T4,t,a,False,1407,1,15521,testPhase
3,0,T2,t,b,False,936,1,15521,testPhase
4,0,B0,b,b,True,1350,1,15521,testPhase
5,0,T2,t,b,False,893,1,15521,testPhase
6,0,A1,a,a,True,1238,1,15521,testPhase
7,0,T2,t,b,False,1708,1,15521,testPhase
8,0,T3,t,a,False,838,1,15521,testPhase
9,0,T3,t,a,False,860,1,15521,testPhase
10,0,T3,t,a,False,879,1,15521,testPhase
11,0,T1,t,a,False,863,1,15521,testPhase
12,0,B6,b,b,True,1115,1,15521,testPhase
13,0,B1,b,a,False,965,1,15521,testPhase
14,0,T0,t,a,False,1950,1,15521,testPhase
15,0,T1,t,a,False,1814,1,15521,testPhase
16,0,T4,t,a,False,1077,1,15521,testPhase
17,0,A4,a,a,True,893,1,15521,testPhase
18,0,B7,b,b,True,950,1,15521,testPhase
19,0,T1,t,a,False,1029,1,15521,testPhase
20,0,B5,b,b,True,1084,1,15521,testPhase
21,0,T1,t,a,False,629,1,15521,testPhase
22,0,A6,a,b,False,852,1,15521,testPhase
23,0,T2,t,a,False,678,1,15521,testPhase
24,0,T4,t,a,False,2878,1,15521,testPhase
25,0,T0,t,a,False,1784,1,15521,testPhase
26,0,A7,a,b,False,1038,1,15521,testPhase
27,0,A0,a,a,True,1238,1,15521,testPhase
28,0,T0,t,a,False,1352,1,15521,testPhase
29,0,T0,t,a,False,694,1,15521,testPhase
30,0,B3,b,b,True,1461,1,15521,testPhase
31,0,T4,t,a,False,1518,1,15521,testPhase
32,0,B4,b,b,True,1741,1,15521,testPhase
33,0,A5,a,a,True,805,1,15521,testPhase
34,0,T0,t,a,False,3110,1,15521,testPhase
35,0,T3,t,b,False,5783,1,15521,testPhase
36,0,T2,t,b,False,1589,1,15521,testPhase
37,0,A2,a,a,True,1304,1,15521,testPhase
38,0,B2,b,a,False,7396,1,15521,testPhase
39,0,T1,t,a,False,637,1,15521,testPhase
40,0,A3,a,b,False,1045,1,15521,testPhase
0,0,T2,t,a,False,1532,1,15524,testPhase
1,0,T4,t,a,False,2565,1,15524,testPhase
2,0,B6,b,a,False,1454,1,15524,testPhase
3,0,T3,t,a,False,1230,1,15524,testPhase
4,0,T4,t,b,False,1002,1,15524,testPhase
5,0,T0,t,a,False,2198,1,15524,testPhase
6,0,B2,b,b,True,1141,1,15524,testPhase
7,0,T2,t,b,False,1288,1,15524,testPhase
8,0,A2,a,a,True,930,1,15524,testPhase
9,0,T0,t,a,False,1421,1,15524,testPhase
10,0,T0,t,b,False,1288,1,15524,testPhase
11,0,T0,t,b,False,1562,1,15524,testPhase
12,0,T0,t,a,False,1095,1,15524,testPhase
13,0,T4,t,a,False,1503,1,15524,testPhase
14,0,T4,t,b,False,2700,1,15524,testPhase
15,0,B7,b,b,True,2007,1,15524,testPhase
16,0,B3,b,b,True,1122,1,15524,testPhase
17,0,T3,t,a,False,912,1,15524,testPhase
18,0,T2,t,b,False,1124,1,15524,testPhase
19,0,T1,t,a,False,979,1,15524,testPhase
20,0,T1,t,a,False,1046,1,15524,testPhase
21,0,T1,t,a,False,960,1,15524,testPhase
22,0,B5,b,b,True,1783,1,15524,testPhase
23,0,B1,b,b,True,2126,1,15524,testPhase
24,0,A1,a,a,True,1229,1,15524,testPhase
25,0,T1,t,b,False,1091,1,15524,testPhase
26,0,T4,t,b,False,1463,1,15524,testPhase
27,0,A6,a,b,False,832,1,15524,testPhase
28,0,A0,a,a,True,727,1,15524,testPhase
29,0,T3,t,b,False,1544,1,15524,testPhase
30,0,A7,a,b,False,1292,1,15524,testPhase
31,0,T3,t,a,False,1069,1,15524,testPhase
32,0,B0,b,b,True,1376,1,15524,testPhase
33,0,T2,t,a,False,771,1,15524,testPhase
34,0,B4,b,a,False,784,1,15524,testPhase
35,0,T2,t,b,False,974,1,15524,testPhase
36,0,T1,t,a,False,689,1,15524,testPhase
37,0,A5,a,b,False,917,1,15524,testPhase
38,0,T3,t,a,False,527,1,15524,testPhase
39,0,A4,a,a,True,767,1,15524,testPhase
40,0,A3,a,a,True,642,1,15524,testPhase
0,0,T2,t,a,False,2825,1,14375,testPhase
1,0,T3,t,b,False,1069,1,14375,testPhase
2,0,T3,t,b,False,1156,1,14375,testPhase
3,0,T1,t,a,False,1040,1,14375,testPhase
4,0,T0,t,a,False,1533,1,14375,testPhase
5,0,B5,b,a,False,2179,1,14375,testPhase
6,0,T1,t,a,False,927,1,14375,testPhase
7,0,T0,t,a,False,926,1,14375,testPhase
8,0,T1,t,a,False,1132,1,14375,testPhase
9,0,T2,t,b,False,2375,1,14375,testPhase
10,0,B2,b,a,False,1901,1,14375,testPhase
11,0,T3,t,b,False,853,1,14375,testPhase
12,0,A4,a,a,True,767,1,14375,testPhase
13,0,A1,a,b,False,815,1,14375,testPhase
14,0,T3,t,b,False,713,1,14375,testPhase
15,0,T2,t,a,False,708,1,14375,testPhase
16,0,T3,t,b,False,740,1,14375,testPhase
17,0,T4,t,a,False,926,1,14375,testPhase
18,0,T4,t,b,False,1065,1,14375,testPhase
19,0,T2,t,b,False,1307,1,14375,testPhase
20,0,B4,b,b,True,705,1,14375,testPhase
21,0,T4,t,b,False,1496,1,14375,testPhase
22,0,T0,t,a,False,951,1,14375,testPhase
23,0,T0,t,a,False,669,1,14375,testPhase
24,0,T1,t,a,False,1308,1,14375,testPhase
25,0,A3,a,b,False,581,1,14375,testPhase
26,0,T0,t,a,False,799,1,14375,testPhase
27,0,T4,t,b,False,773,1,14375,testPhase
28,0,T4,t,b,False,626,1,14375,testPhase
29,0,A7,a,a,True,1152,1,14375,testPhase
30,0,B6,b,b,True,1202,1,14375,testPhase
31,0,A2,a,a,True,982,1,14375,testPhase
32,0,A5,a,a,True,1791,1,14375,testPhase
33,0,A6,a,b,False,942,1,14375,testPhase
34,0,B3,b,b,True,637,1,14375,testPhase
35,0,B7,b,b,True,668,1,14375,testPhase
36,0,T2,t,b,False,1222,1,14375,testPhase
37,0,A0,a,a,True,724,1,14375,testPhase
38,0,B0,b,b,True,786,1,14375,testPhase
39,0,T1,t,a,False,711,1,14375,testPhase
40,0,B1,b,a,False,685,1,14375,testPhase
0,0,A4,a,a,True,1255,1,15527,testPhase
1,0,A7,a,b,False,1723,1,15527,testPhase
2,0,A3,a,b,False,1574,1,15527,testPhase
3,0,B4,b,b,True,1221,1,15527,testPhase
4,0,B3,b,a,False,1006,1,15527,testPhase
5,0,T4,t,a,False,878,1,15527,testPhase
6,0,T4,t,a,False,1836,1,15527,testPhase
7,0,T4,t,b,False,815,1,15527,testPhase
8,0,T3,t,b,False,1177,1,15527,testPhase
9,0,A2,a,a,True,715,1,15527,testPhase
10,0,T2,t,b,False,783,1,15527,testPhase
11,0,T0,t,b,False,1526,1,15527,testPhase
12,0,B7,b,b,True,1593,1,15527,testPhase
13,0,B0,b,a,False,832,1,15527,testPhase
14,0,A6,a,a,True,1278,1,15527,testPhase
15,0,T1,t,a,False,734,1,15527,testPhase
16,0,T4,t,b,False,680,1,15527,testPhase
17,0,T1,t,a,False,706,1,15527,testPhase
18,0,T3,t,b,False,606,1,15527,testPhase
19,0,T0,t,b,False,1158,1,15527,testPhase
20,0,T2,t,b,False,1094,1,15527,testPhase
21,0,T2,t,b,False,510,1,15527,testPhase
22,0,T1,t,a,False,524,1,15527,testPhase
23,0,T3,t,a,False,454,1,15527,testPhase
24,0,T1,t,b,False,367,1,15527,testPhase
25,0,T0,t,a,False,317,1,15527,testPhase
26,0,T4,t,b,False,692,1,15527,testPhase
27,0,T2,t,a,False,481,1,15527,testPhase
28,0,T3,t,b,False,414,1,15527,testPhase
29,0,T2,t,a,False,365,1,15527,testPhase
