trial,block,stimId,category,response,accuracy,rt,condition,id,phase
0,0,B0,b,a,False,1876,1,14347,trainPhase
1,0,B5,b,b,True,1377,1,14347,trainPhase
2,0,B1,b,b,True,1720,1,14347,trainPhase
3,0,A4,a,b,False,2076,1,14347,trainPhase
4,0,B2,b,b,True,2877,1,14347,trainPhase
5,0,A1,a,a,True,1323,1,14347,trainPhase
6,0,B6,b,b,True,1120,1,14347,trainPhase
7,0,B3,b,a,False,977,1,14347,trainPhase
8,0,A3,a,b,False,2130,1,14347,trainPhase
9,0,B4,b,a,False,1936,1,14347,trainPhase
10,0,A7,a,a,True,1668,1,14347,trainPhase
11,0,A6,a,b,False,1736,1,14347,trainPhase
12,0,A5,a,b,False,1131,1,14347,trainPhase
13,0,A0,a,a,True,1839,1,14347,trainPhase
14,0,B7,b,a,False,5485,1,14347,trainPhase
15,0,A2,a,b,False,1132,1,14347,trainPhase
0,1,B4,b,a,False,1876,1,14347,trainPhase
1,1,B5,b,b,True,775,1,14347,trainPhase
2,1,B2,b,b,True,859,1,14347,trainPhase
3,1,A2,a,b,False,1108,1,14347,trainPhase
4,1,A4,a,b,False,1173,1,14347,trainPhase
5,1,B3,b,a,False,1329,1,14347,trainPhase
6,1,A5,a,b,False,1779,1,14347,trainPhase
7,1,B6,b,b,True,1762,1,14347,trainPhase
8,1,B0,b,b,True,1267,1,14347,trainPhase
9,1,B1,b,b,True,1338,1,14347,trainPhase
10,1,A3,a,b,False,1765,1,14347,trainPhase
11,1,A1,a,a,True,1528,1,14347,trainPhase
12,1,B7,b,b,True,990,1,14347,trainPhase
13,1,A7,a,a,True,1090,1,14347,trainPhase
14,1,A0,a,a,True,1307,1,14347,trainPhase
15,1,A6,a,a,True,987,1,14347,trainPhase
0,2,B7,b,b,True,2399,1,14347,trainPhase
1,2,B6,b,b,True,922,1,14347,trainPhase
2,2,A2,a,b,False,1189,1,14347,trainPhase
3,2,A4,a,a,True,1357,1,14347,trainPhase
4,2,B2,b,a,False,1766,1,14347,trainPhase
5,2,A3,a,b,False,1365,1,14347,trainPhase
6,2,B0,b,a,False,2924,1,14347,trainPhase
7,2,B3,b,a,False,1582,1,14347,trainPhase
8,2,B1,b,a,False,2222,1,14347,trainPhase
9,2,A1,a,a,True,974,1,14347,trainPhase
10,2,A6,a,a,True,2785,1,14347,trainPhase
11,2,A0,a,a,True,1935,1,14347,trainPhase
12,2,A5,a,a,True,1243,1,14347,trainPhase
13,2,B5,b,b,True,1462,1,14347,trainPhase
14,2,B4,b,a,False,1373,1,14347,trainPhase
15,2,A7,a,a,True,1028,1,14347,trainPhase
0,3,B2,b,b,True,783,1,14347,trainPhase
1,3,B1,b,b,True,995,1,14347,trainPhase
2,3,B4,b,a,False,1335,1,14347,trainPhase
3,3,A7,a,a,True,1354,1,14347,trainPhase
4,3,A1,a,a,True,2642,1,14347,trainPhase
5,3,A5,a,a,True,1232,1,14347,trainPhase
6,3,A4,a,a,True,1521,1,14347,trainPhase
7,3,B3,b,a,False,1586,1,14347,trainPhase
8,3,B6,b,b,True,1498,1,14347,trainPhase
9,3,A0,a,a,True,3733,1,14347,trainPhase
10,3,A6,a,a,True,1227,1,14347,trainPhase
11,3,B0,b,a,False,4766,1,14347,trainPhase
12,3,B5,b,b,True,1534,1,14347,trainPhase
13,3,A3,a,a,True,774,1,14347,trainPhase
14,3,B7,b,a,False,2078,1,14347,trainPhase
15,3,A2,a,b,False,1851,1,14347,trainPhase
0,4,B7,b,b,True,2132,1,14347,trainPhase
1,4,A0,a,b,False,912,1,14347,trainPhase
2,4,B6,b,b,True,1843,1,14347,trainPhase
3,4,B3,b,b,True,955,1,14347,trainPhase
4,4,B5,b,b,True,1430,1,14347,trainPhase
5,4,B4,b,a,False,1881,1,14347,trainPhase
6,4,B1,b,b,True,2007,1,14347,trainPhase
7,4,A3,a,b,False,773,1,14347,trainPhase
8,4,A1,a,b,False,1533,1,14347,trainPhase
9,4,A6,a,a,True,984,1,14347,trainPhase
10,4,A7,a,a,True,794,1,14347,trainPhase
11,4,A5,a,a,True,1795,1,14347,trainPhase
12,4,A2,a,b,False,1776,1,14347,trainPhase
13,4,B0,b,b,True,2498,1,14347,trainPhase
14,4,A4,a,a,True,1231,1,14347,trainPhase
15,4,B2,b,b,True,1285,1,14347,trainPhase
0,5,B2,b,b,True,6643,1,14347,trainPhase
1,5,A5,a,a,True,1149,1,14347,trainPhase
2,5,A1,a,a,True,5453,1,14347,trainPhase
3,5,A3,a,b,False,2012,1,14347,trainPhase
4,5,B4,b,b,True,2660,1,14347,trainPhase
5,5,B6,b,b,True,1287,1,14347,trainPhase
6,5,B0,b,b,True,847,1,14347,trainPhase
7,5,B1,b,a,False,1786,1,14347,trainPhase
8,5,A2,a,b,False,1063,1,14347,trainPhase
9,5,A4,a,a,True,1225,1,14347,trainPhase
10,5,A7,a,a,True,1182,1,14347,trainPhase
11,5,A6,a,a,True,905,1,14347,trainPhase
12,5,A0,a,a,True,1545,1,14347,trainPhase
13,5,B5,b,b,True,1004,1,14347,trainPhase
14,5,B7,b,b,True,1030,1,14347,trainPhase
15,5,B3,b,b,True,3014,1,14347,trainPhase
0,6,A4,a,a,True,1010,1,14347,trainPhase
1,6,B0,b,b,True,1207,1,14347,trainPhase
2,6,B7,b,b,True,885,1,14347,trainPhase
3,6,A5,a,a,True,927,1,14347,trainPhase
4,6,A3,a,b,False,953,1,14347,trainPhase
5,6,B1,b,b,True,895,1,14347,trainPhase
6,6,B4,b,b,True,827,1,14347,trainPhase
7,6,B6,b,b,True,1469,1,14347,trainPhase
8,6,A2,a,b,False,918,1,14347,trainPhase
9,6,A0,a,b,False,4292,1,14347,trainPhase
10,6,A7,a,a,True,1387,1,14347,trainPhase
11,6,B3,b,a,False,1615,1,14347,trainPhase
12,6,A1,a,b,False,840,1,14347,trainPhase
13,6,B2,b,b,True,3570,1,14347,trainPhase
14,6,A6,a,a,True,941,1,14347,trainPhase
15,6,B5,b,b,True,3713,1,14347,trainPhase
0,7,A7,a,a,True,1046,1,14347,trainPhase
1,7,B3,b,a,False,1144,1,14347,trainPhase
2,7,B0,b,b,True,729,1,14347,trainPhase
3,7,B5,b,b,True,769,1,14347,trainPhase
4,7,A3,a,b,False,1255,1,14347,trainPhase
5,7,A5,a,b,False,2294,1,14347,trainPhase
6,7,A1,a,b,False,1602,1,14347,trainPhase
7,7,A0,a,b,False,1501,1,14347,trainPhase
8,7,B7,b,b,True,1095,1,14347,trainPhase
9,7,B2,b,b,True,709,1,14347,trainPhase
10,7,A2,a,b,False,690,1,14347,trainPhase
11,7,A6,a,a,True,1944,1,14347,trainPhase
12,7,B6,b,b,True,1072,1,14347,trainPhase
13,7,B4,b,b,True,2741,1,14347,trainPhase
14,7,A4,a,a,True,1124,1,14347,trainPhase
15,7,B1,b,b,True,3888,1,14347,trainPhase
0,8,A7,a,a,True,1254,1,14347,trainPhase
1,8,A6,a,a,True,1434,1,14347,trainPhase
2,8,A1,a,b,False,1807,1,14347,trainPhase
3,8,B4,b,a,False,1557,1,14347,trainPhase
4,8,B0,b,b,True,1731,1,14347,trainPhase
5,8,B7,b,b,True,1020,1,14347,trainPhase
6,8,B2,b,b,True,700,1,14347,trainPhase
7,8,A5,a,a,True,990,1,14347,trainPhase
8,8,A4,a,a,True,1200,1,14347,trainPhase
9,8,B1,b,b,True,1748,1,14347,trainPhase
10,8,A0,a,a,True,1000,1,14347,trainPhase
11,8,B5,b,b,True,3463,1,14347,trainPhase
12,8,A2,a,a,True,1103,1,14347,trainPhase
13,8,B6,b,b,True,2221,1,14347,trainPhase
14,8,B3,b,b,True,1219,1,14347,trainPhase
15,8,A3,a,a,True,1169,1,14347,trainPhase
0,9,B1,b,b,True,2160,1,14347,trainPhase
1,9,A1,a,a,True,1146,1,14347,trainPhase
2,9,B3,b,b,True,3038,1,14347,trainPhase
3,9,A0,a,a,True,1302,1,14347,trainPhase
0,0,B7,b,a,False,2083,1,14356,trainPhase
1,0,A7,a,b,False,1708,1,14356,trainPhase
2,0,A5,a,b,False,5723,1,14356,trainPhase
3,0,B6,b,a,False,1261,1,14356,trainPhase
4,0,A6,a,b,False,2203,1,14356,trainPhase
5,0,A3,a,a,True,1299,1,14356,trainPhase
6,0,A0,a,b,False,1685,1,14356,trainPhase
7,0,B5,b,a,False,3462,1,14356,trainPhase
8,0,A2,a,a,True,1321,1,14356,trainPhase
9,0,B0,b,b,True,1657,1,14356,trainPhase
10,0,B1,b,a,False,1331,1,14356,trainPhase
11,0,A4,a,a,True,1438,1,14356,trainPhase
12,0,A1,a,b,False,1342,1,14356,trainPhase
13,0,B2,b,a,False,1159,1,14356,trainPhase
14,0,B4,b,b,True,3314,1,14356,trainPhase
15,0,B3,b,b,True,982,1,14356,trainPhase
0,1,B1,b,a,False,950,1,14356,trainPhase
1,1,A2,a,a,True,1145,1,14356,trainPhase
2,1,B2,b,a,False,1039,1,14356,trainPhase
3,1,A4,a,b,False,1114,1,14356,trainPhase
4,1,B0,b,a,False,63506,1,14356,trainPhase
5,1,A5,a,a,True,1046,1,14356,trainPhase
6,1,B4,b,b,True,858,1,14356,trainPhase
7,1,A6,a,a,True,1526,1,14356,trainPhase
8,1,A1,a,b,False,1087,1,14356,trainPhase
9,1,B5,b,a,False,4092,1,14356,trainPhase
10,1,A0,a,b,False,1195,1,14356,trainPhase
11,1,A7,a,b,False,1388,1,14356,trainPhase
12,1,B6,b,b,True,2833,1,14356,trainPhase
13,1,A3,a,b,False,758,1,14356,trainPhase
14,1,B7,b,a,False,4525,1,14356,trainPhase
15,1,B3,b,a,False,1050,1,14356,trainPhase
0,2,A1,a,b,False,1613,1,14356,trainPhase
1,2,A5,a,b,False,3257,1,14356,trainPhase
2,2,B0,b,b,True,1696,1,14356,trainPhase
3,2,B6,b,a,False,2825,1,14356,trainPhase
4,2,B3,b,b,True,1605,1,14356,trainPhase
5,2,B7,b,b,True,916,1,14356,trainPhase
6,2,A0,a,a,True,1614,1,14356,trainPhase
7,2,A6,a,b,False,2838,1,14356,trainPhase
8,2,A2,a,a,True,1284,1,14356,trainPhase
9,2,B2,b,b,True,1471,1,14356,trainPhase
10,2,B5,b,b,True,1117,1,14356,trainPhase
11,2,A7,a,b,False,2934,1,14356,trainPhase
12,2,A4,a,b,False,2038,1,14356,trainPhase
13,2,A3,a,b,False,1520,1,14356,trainPhase
14,2,B4,b,b,True,1123,1,14356,trainPhase
15,2,B1,b,a,False,1613,1,14356,trainPhase
0,3,A6,a,b,False,688,1,14356,trainPhase
1,3,A1,a,a,True,12143,1,14356,trainPhase
2,3,B3,b,a,False,1202,1,14356,trainPhase
3,3,B1,b,b,True,2359,1,14356,trainPhase
4,3,B2,b,b,True,1143,1,14356,trainPhase
5,3,A5,a,b,False,638,1,14356,trainPhase
6,3,A7,a,b,False,734,1,14356,trainPhase
7,3,B4,b,a,False,823,1,14356,trainPhase
8,3,A0,a,b,False,384,1,14356,trainPhase
9,3,B6,b,a,False,315,1,14356,trainPhase
10,3,A4,a,a,True,485,1,14356,trainPhase
11,3,B7,b,a,False,711,1,14356,trainPhase
12,3,A3,a,b,False,1117,1,14356,trainPhase
13,3,B0,b,b,True,580,1,14356,trainPhase
14,3,B5,b,b,True,1037,1,14356,trainPhase
15,3,A2,a,a,True,1804,1,14356,trainPhase
0,4,A3,a,a,True,750,1,14356,trainPhase
1,4,A1,a,b,False,1040,1,14356,trainPhase
2,4,A4,a,a,True,2096,1,14356,trainPhase
3,4,A5,a,b,False,5101,1,14356,trainPhase
4,4,B2,b,b,True,402,1,14356,trainPhase
5,4,B7,b,b,True,312,1,14356,trainPhase
6,4,B4,b,b,True,1595,1,14356,trainPhase
7,4,B0,b,a,False,595,1,14356,trainPhase
8,4,B3,b,b,True,1394,1,14356,trainPhase
9,4,A6,a,a,True,1383,1,14356,trainPhase
10,4,A7,a,b,False,701,1,14356,trainPhase
11,4,A0,a,b,False,2824,1,14356,trainPhase
12,4,A2,a,a,True,1341,1,14356,trainPhase
13,4,B1,b,b,True,1227,1,14356,trainPhase
14,4,B5,b,a,False,2817,1,14356,trainPhase
15,4,B6,b,b,True,1982,1,14356,trainPhase
0,5,A5,a,b,False,620,1,14356,trainPhase
1,5,B4,b,b,True,4822,1,14356,trainPhase
2,5,A4,a,a,True,4493,1,14356,trainPhase
3,5,B1,b,b,True,3523,1,14356,trainPhase
4,5,A6,a,a,True,3845,1,14356,trainPhase
5,5,A7,a,a,True,4459,1,14356,trainPhase
6,5,B7,b,b,True,3691,1,14356,trainPhase
7,5,A0,a,b,False,3725,1,14356,trainPhase
8,5,A3,a,b,False,3644,1,14356,trainPhase
9,5,A1,a,a,True,4928,1,14356,trainPhase
10,5,B0,b,a,False,4457,1,14356,trainPhase
11,5,B2,b,a,False,5367,1,14356,trainPhase
12,5,A2,a,b,False,1781,1,14356,trainPhase
13,5,B3,b,a,False,3398,1,14356,trainPhase
14,5,B6,b,b,True,3929,1,14356,trainPhase
15,5,B5,b,a,False,3435,1,14356,trainPhase
0,6,A4,a,b,False,3749,1,14356,trainPhase
1,6,B0,b,b,True,2693,1,14356,trainPhase
2,6,A1,a,b,False,786,1,14356,trainPhase
3,6,B2,b,a,False,1013,1,14356,trainPhase
4,6,B4,b,b,True,399,1,14356,trainPhase
5,6,A7,a,b,False,304,1,14356,trainPhase
6,6,B7,b,a,False,14514,1,14356,trainPhase
7,6,A0,a,a,True,1503,1,14356,trainPhase
8,6,B5,b,b,True,1046,1,14356,trainPhase
9,6,A6,a,b,False,465,1,14356,trainPhase
10,6,A2,a,b,False,385,1,14356,trainPhase
11,6,A3,a,b,False,417,1,14356,trainPhase
12,6,B1,b,b,True,1551,1,14356,trainPhase
13,6,A5,a,a,True,1123,1,14356,trainPhase
14,6,B6,b,b,True,971,1,14356,trainPhase
15,6,B3,b,a,False,1576,1,14356,trainPhase
0,7,B6,b,b,True,2363,1,14356,trainPhase
1,7,A6,a,a,True,2467,1,14356,trainPhase
2,7,B7,b,b,True,985,1,14356,trainPhase
3,7,A1,a,a,True,1430,1,14356,trainPhase
4,7,B4,b,a,False,955,1,14356,trainPhase
5,7,A2,a,b,False,844,1,14356,trainPhase
6,7,B1,b,b,True,1015,1,14356,trainPhase
7,7,A0,a,a,True,1598,1,14356,trainPhase
8,7,B2,b,b,True,1342,1,14356,trainPhase
9,7,A5,a,b,False,2407,1,14356,trainPhase
10,7,B5,b,b,True,2435,1,14356,trainPhase
11,7,A3,a,a,True,1398,1,14356,trainPhase
12,7,B3,b,a,False,3173,1,14356,trainPhase
13,7,A4,a,a,True,1753,1,14356,trainPhase
14,7,B0,b,b,True,1125,1,14356,trainPhase
15,7,A7,a,b,False,1040,1,14356,trainPhase
0,8,B4,b,a,False,406,1,14356,trainPhase
1,8,A5,a,b,False,416,1,14356,trainPhase
2,8,A4,a,a,True,917,1,14356,trainPhase
3,8,B3,b,b,True,650,1,14356,trainPhase
4,8,A7,a,b,False,638,1,14356,trainPhase
5,8,B2,b,a,False,595,1,14356,trainPhase
6,8,B1,b,b,True,553,1,14356,trainPhase
7,8,B5,b,b,True,569,1,14356,trainPhase
8,8,A6,a,b,False,432,1,14356,trainPhase
9,8,B7,b,a,False,693,1,14356,trainPhase
10,8,B6,b,b,True,535,1,14356,trainPhase
11,8,A1,a,b,False,371,1,14356,trainPhase
12,8,A0,a,b,False,323,1,14356,trainPhase
13,8,A2,a,b,False,261,1,14356,trainPhase
14,8,B0,b,b,True,288,1,14356,trainPhase
15,8,A3,a,b,False,176,1,14356,trainPhase
0,9,B7,b,b,True,232,1,14356,trainPhase
1,9,A3,a,b,False,231,1,14356,trainPhase
2,9,A5,a,b,False,164,1,14356,trainPhase
3,9,A2,a,b,False,157,1,14356,trainPhase
4,9,A4,a,b,False,174,1,14356,trainPhase
5,9,B1,b,b,True,163,1,14356,trainPhase
6,9,A1,a,b,False,132,1,14356,trainPhase
7,9,B2,b,b,True,148,1,14356,trainPhase
8,9,A6,a,b,False,134,1,14356,trainPhase
9,9,A0,a,b,False,153,1,14356,trainPhase
10,9,A7,a,b,False,210,1,14356,trainPhase
11,9,B5,b,b,True,168,1,14356,trainPhase
12,9,B6,b,b,True,160,1,14356,trainPhase
13,9,B0,b,b,True,30491,1,14356,trainPhase
14,9,B3,b,b,True,872,1,14356,trainPhase
15,9,B4,b,b,True,764,1,14356,trainPhase
0,10,A2,a,a,True,861,1,14356,trainPhase
1,10,A6,a,b,False,934,1,14356,trainPhase
2,10,B4,b,a,False,364,1,14356,trainPhase
3,10,A4,a,a,True,1240,1,14356,trainPhase
4,10,B1,b,b,True,1543,1,14356,trainPhase
5,10,B7,b,b,True,727,1,14356,trainPhase
6,10,A0,a,a,True,1103,1,14356,trainPhase
7,10,A3,a,b,False,902,1,14356,trainPhase
8,10,B5,b,b,True,735,1,14356,trainPhase
9,10,A7,a,a,True,1416,1,14356,trainPhase
10,10,B6,b,b,True,948,1,14356,trainPhase
11,10,B0,b,a,False,846,1,14356,trainPhase
12,10,A5,a,a,True,1495,1,14356,trainPhase
13,10,A1,a,b,False,856,1,14356,trainPhase
14,10,B3,b,b,True,698,1,14356,trainPhase
15,10,B2,b,a,False,1477,1,14356,trainPhase
0,11,A1,a,b,False,1237,1,14356,trainPhase
1,11,B0,b,a,False,1324,1,14356,trainPhase
2,11,B5,b,a,False,1182,1,14356,trainPhase
3,11,B6,b,a,False,945,1,14356,trainPhase
4,11,B4,b,b,True,784,1,14356,trainPhase
5,11,A3,a,b,False,534,1,14356,trainPhase
6,11,A0,a,a,True,1346,1,14356,trainPhase
7,11,A6,a,a,True,1805,1,14356,trainPhase
8,11,B7,b,b,True,893,1,14356,trainPhase
9,11,A4,a,a,True,2616,1,14356,trainPhase
10,11,A5,a,a,True,765,1,14356,trainPhase
11,11,A7,a,a,True,1160,1,14356,trainPhase
12,11,B3,b,b,True,747,1,14356,trainPhase
13,11,A2,a,a,True,1620,1,14356,trainPhase
14,11,B1,b,b,True,987,1,14356,trainPhase
15,11,B2,b,b,True,1407,1,14356,trainPhase
0,12,A6,a,a,True,856,1,14356,trainPhase
1,12,A0,a,a,True,859,1,14356,trainPhase
2,12,A1,a,a,True,779,1,14356,trainPhase
3,12,B6,b,b,True,841,1,14356,trainPhase
4,12,A7,a,a,True,1612,1,14356,trainPhase
5,12,A2,a,a,True,1408,1,14356,trainPhase
0,0,B5,b,a,False,6029,1,15039,trainPhase
1,0,B3,b,b,True,1557,1,15039,trainPhase
2,0,B1,b,b,True,1411,1,15039,trainPhase
3,0,B6,b,b,True,1542,1,15039,trainPhase
4,0,A4,a,b,False,1013,1,15039,trainPhase
5,0,B2,b,a,False,1252,1,15039,trainPhase
6,0,A3,a,b,False,1390,1,15039,trainPhase
7,0,A5,a,a,True,1542,1,15039,trainPhase
8,0,A1,a,b,False,1653,1,15039,trainPhase
9,0,B4,b,b,True,5398,1,15039,trainPhase
10,0,A0,a,b,False,1365,1,15039,trainPhase
11,0,A2,a,a,True,1094,1,15039,trainPhase
12,0,A7,a,b,False,1430,1,15039,trainPhase
13,0,B7,b,b,True,1430,1,15039,trainPhase
14,0,B0,b,a,False,3702,1,15039,trainPhase
15,0,A6,a,b,False,1234,1,15039,trainPhase
0,1,B2,b,a,False,2462,1,15039,trainPhase
1,1,A2,a,b,False,1281,1,15039,trainPhase
2,1,A3,a,a,True,1181,1,15039,trainPhase
3,1,A5,a,a,True,970,1,15039,trainPhase
4,1,B1,b,a,False,1182,1,15039,trainPhase
5,1,B6,b,a,False,1196,1,15039,trainPhase
6,1,A4,a,a,True,966,1,15039,trainPhase
7,1,B7,b,b,True,1677,1,15039,trainPhase
8,1,A0,a,a,True,1989,1,15039,trainPhase
9,1,B0,b,b,True,2637,1,15039,trainPhase
10,1,A6,a,b,False,1878,1,15039,trainPhase
11,1,B5,b,a,False,1213,1,15039,trainPhase
12,1,B4,b,b,True,1389,1,15039,trainPhase
13,1,B3,b,b,True,1230,1,15039,trainPhase
14,1,A7,a,b,False,895,1,15039,trainPhase
15,1,A1,a,b,False,1726,1,15039,trainPhase
0,2,A2,a,a,True,861,1,15039,trainPhase
1,2,A5,a,a,True,877,1,15039,trainPhase
2,2,B5,b,a,False,1342,1,15039,trainPhase
3,2,B1,b,a,False,1046,1,15039,trainPhase
4,2,B7,b,b,True,966,1,15039,trainPhase
5,2,B3,b,b,True,1122,1,15039,trainPhase
6,2,A3,a,a,True,1126,1,15039,trainPhase
7,2,B6,b,a,False,862,1,15039,trainPhase
8,2,A7,a,b,False,1030,1,15039,trainPhase
9,2,B2,b,a,False,1785,1,15039,trainPhase
10,2,B4,b,a,False,4742,1,15039,trainPhase
11,2,A4,a,b,False,1151,1,15039,trainPhase
12,2,A1,a,b,False,1478,1,15039,trainPhase
13,2,B0,b,a,False,1126,1,15039,trainPhase
14,2,A6,a,b,False,910,1,15039,trainPhase
15,2,A0,a,a,True,1516,1,15039,trainPhase
0,3,A5,a,a,True,1206,1,15039,trainPhase
1,3,B4,b,b,True,1173,1,15039,trainPhase
2,3,A2,a,a,True,1270,1,15039,trainPhase
3,3,A3,a,b,False,1774,1,15039,trainPhase
4,3,B0,b,a,False,1598,1,15039,trainPhase
5,3,A0,a,a,True,1993,1,15039,trainPhase
6,3,B7,b,b,True,1147,1,15039,trainPhase
7,3,B2,b,a,False,1080,1,15039,trainPhase
8,3,A1,a,a,True,1133,1,15039,trainPhase
9,3,B6,b,b,True,1986,1,15039,trainPhase
10,3,B5,b,b,True,997,1,15039,trainPhase
11,3,B1,b,b,True,1189,1,15039,trainPhase
12,3,B3,b,b,True,708,1,15039,trainPhase
13,3,A4,a,a,True,1198,1,15039,trainPhase
14,3,A7,a,b,False,837,1,15039,trainPhase
15,3,A6,a,a,True,1726,1,15039,trainPhase
0,4,A2,a,a,True,898,1,15039,trainPhase
1,4,B6,b,b,True,1070,1,15039,trainPhase
2,4,A0,a,a,True,1053,1,15039,trainPhase
3,4,B4,b,b,True,4409,1,15039,trainPhase
4,4,B5,b,b,True,1271,1,15039,trainPhase
5,4,A3,a,b,False,1117,1,15039,trainPhase
6,4,B1,b,b,True,1214,1,15039,trainPhase
7,4,A7,a,a,True,1278,1,15039,trainPhase
8,4,B3,b,b,True,863,1,15039,trainPhase
9,4,A4,a,b,False,2113,1,15039,trainPhase
10,4,A5,a,a,True,3435,1,15039,trainPhase
11,4,A1,a,a,True,1638,1,15039,trainPhase
12,4,B0,b,b,True,7833,1,15039,trainPhase
13,4,B2,b,b,True,1520,1,15039,trainPhase
14,4,B7,b,b,True,1241,1,15039,trainPhase
15,4,A6,a,b,False,1095,1,15039,trainPhase
0,5,A3,a,b,False,1684,1,15039,trainPhase
1,5,B5,b,a,False,1043,1,15039,trainPhase
2,5,A4,a,b,False,1189,1,15039,trainPhase
3,5,A6,a,b,False,1414,1,15039,trainPhase
4,5,B3,b,a,False,868,1,15039,trainPhase
5,5,B7,b,b,True,941,1,15039,trainPhase
6,5,B1,b,b,True,1518,1,15039,trainPhase
7,5,A7,a,b,False,3060,1,15039,trainPhase
8,5,A1,a,a,True,1348,1,15039,trainPhase
9,5,B0,b,b,True,1078,1,15039,trainPhase
10,5,B2,b,b,True,936,1,15039,trainPhase
11,5,A0,a,a,True,1133,1,15039,trainPhase
12,5,A5,a,b,False,1020,1,15039,trainPhase
13,5,B6,b,a,False,725,1,15039,trainPhase
14,5,A2,a,a,True,1078,1,15039,trainPhase
15,5,B4,b,b,True,1318,1,15039,trainPhase
0,6,A2,a,a,True,1229,1,15039,trainPhase
1,6,B1,b,a,False,1070,1,15039,trainPhase
2,6,A4,a,a,True,1069,1,15039,trainPhase
3,6,B4,b,b,True,1477,1,15039,trainPhase
4,6,B2,b,b,True,1325,1,15039,trainPhase
5,6,B5,b,b,True,1073,1,15039,trainPhase
6,6,A0,a,a,True,789,1,15039,trainPhase
7,6,A7,a,a,True,2166,1,15039,trainPhase
8,6,B0,b,a,False,2982,1,15039,trainPhase
9,6,A6,a,a,True,1314,1,15039,trainPhase
10,6,A1,a,b,False,1911,1,15039,trainPhase
11,6,A3,a,a,True,846,1,15039,trainPhase
12,6,A5,a,a,True,1022,1,15039,trainPhase
13,6,B7,b,a,False,1254,1,15039,trainPhase
14,6,B3,b,b,True,1234,1,15039,trainPhase
15,6,B6,b,a,False,1030,1,15039,trainPhase
0,7,B1,b,a,False,950,1,15039,trainPhase
1,7,B3,b,b,True,1171,1,15039,trainPhase
2,7,B2,b,a,False,1040,1,15039,trainPhase
3,7,B5,b,b,True,1158,1,15039,trainPhase
4,7,A6,a,b,False,1973,1,15039,trainPhase
5,7,A3,a,a,True,1103,1,15039,trainPhase
6,7,B7,b,a,False,1082,1,15039,trainPhase
7,7,A2,a,a,True,1135,1,15039,trainPhase
8,7,A7,a,b,False,1552,1,15039,trainPhase
9,7,A1,a,a,True,894,1,15039,trainPhase
10,7,B6,b,a,False,989,1,15039,trainPhase
11,7,B0,b,a,False,1919,1,15039,trainPhase
12,7,A5,a,a,True,1062,1,15039,trainPhase
13,7,A0,a,a,True,814,1,15039,trainPhase
14,7,A4,a,a,True,681,1,15039,trainPhase
15,7,B4,b,a,False,1017,1,15039,trainPhase
0,8,B4,b,a,False,1590,1,15039,trainPhase
1,8,A2,a,a,True,1066,1,15039,trainPhase
2,8,A5,a,a,True,1193,1,15039,trainPhase
3,8,A1,a,a,True,861,1,15039,trainPhase
4,8,B7,b,a,False,734,1,15039,trainPhase
5,8,B3,b,a,False,1270,1,15039,trainPhase
6,8,B5,b,a,False,734,1,15039,trainPhase
7,8,A3,a,a,True,1525,1,15039,trainPhase
8,8,B1,b,b,True,2254,1,15039,trainPhase
9,8,B2,b,a,False,1125,1,15039,trainPhase
10,8,A0,a,a,True,1094,1,15039,trainPhase
11,8,A4,a,a,True,1398,1,15039,trainPhase
12,8,B0,b,a,False,701,1,15039,trainPhase
13,8,A7,a,b,False,1494,1,15039,trainPhase
14,8,A6,a,a,True,1614,1,15039,trainPhase
15,8,B6,b,a,False,982,1,15039,trainPhase
0,9,A3,a,a,True,1064,1,15039,trainPhase
1,9,B7,b,a,False,1549,1,15039,trainPhase
2,9,A2,a,a,True,1070,1,15039,trainPhase
3,9,A0,a,a,True,829,1,15039,trainPhase
4,9,A4,a,b,False,1424,1,15039,trainPhase
5,9,A6,a,b,False,1238,1,15039,trainPhase
6,9,B4,b,a,False,1091,1,15039,trainPhase
7,9,B5,b,a,False,843,1,15039,trainPhase
8,9,B1,b,a,False,1255,1,15039,trainPhase
9,9,A5,a,a,True,1843,1,15039,trainPhase
10,9,B3,b,a,False,847,1,15039,trainPhase
11,9,B0,b,a,False,2303,1,15039,trainPhase
12,9,B2,b,b,True,1302,1,15039,trainPhase
13,9,A7,a,b,False,1341,1,15039,trainPhase
14,9,A1,a,a,True,910,1,15039,trainPhase
15,9,B6,b,a,False,1337,1,15039,trainPhase
0,10,A6,a,a,True,1382,1,15039,trainPhase
1,10,A4,a,b,False,2093,1,15039,trainPhase
2,10,B1,b,a,False,1174,1,15039,trainPhase
3,10,A3,a,a,True,1325,1,15039,trainPhase
4,10,A7,a,a,True,1622,1,15039,trainPhase
5,10,A5,a,a,True,2753,1,15039,trainPhase
6,10,B5,b,b,True,4422,1,15039,trainPhase
7,10,B3,b,b,True,1122,1,15039,trainPhase
8,10,A1,a,b,False,1223,1,15039,trainPhase
9,10,A0,a,a,True,918,1,15039,trainPhase
10,10,B0,b,a,False,782,1,15039,trainPhase
11,10,B7,b,a,False,1030,1,15039,trainPhase
12,10,B4,b,b,True,800,1,15039,trainPhase
13,10,B2,b,a,False,1254,1,15039,trainPhase
14,10,B6,b,b,True,1595,1,15039,trainPhase
15,10,A2,a,b,False,567,1,15039,trainPhase
0,11,B0,b,a,False,910,1,15039,trainPhase
1,11,A0,a,a,True,614,1,15039,trainPhase
2,11,B6,b,b,True,1447,1,15039,trainPhase
3,11,A2,a,a,True,726,1,15039,trainPhase
4,11,A3,a,a,True,1453,1,15039,trainPhase
5,11,A1,a,a,True,1062,1,15039,trainPhase
6,11,B7,b,b,True,965,1,15039,trainPhase
7,11,A5,a,b,False,790,1,15039,trainPhase
8,11,A6,a,a,True,1141,1,15039,trainPhase
9,11,B5,b,a,False,718,1,15039,trainPhase
10,11,B4,b,b,True,1967,1,15039,trainPhase
11,11,B3,b,a,False,980,1,15039,trainPhase
12,11,B1,b,a,False,910,1,15039,trainPhase
13,11,A7,a,a,True,1422,1,15039,trainPhase
14,11,A4,a,b,False,1262,1,15039,trainPhase
15,11,B2,b,a,False,713,1,15039,trainPhase
0,12,A2,a,a,True,775,1,15039,trainPhase
1,12,B0,b,a,False,1110,1,15039,trainPhase
2,12,A5,a,b,False,979,1,15039,trainPhase
3,12,A3,a,a,True,1341,1,15039,trainPhase
4,12,A1,a,a,True,735,1,15039,trainPhase
5,12,A6,a,a,True,2510,1,15039,trainPhase
6,12,B3,b,b,True,1366,1,15039,trainPhase
7,12,A0,a,a,True,965,1,15039,trainPhase
8,12,A7,a,a,True,3286,1,15039,trainPhase
9,12,B4,b,b,True,1584,1,15039,trainPhase
10,12,A4,a,a,True,4630,1,15039,trainPhase
11,12,B6,b,a,False,902,1,15039,trainPhase
12,12,B7,b,a,False,1791,1,15039,trainPhase
13,12,B5,b,b,True,1085,1,15039,trainPhase
14,12,B2,b,b,True,1087,1,15039,trainPhase
15,12,B1,b,b,True,1344,1,15039,trainPhase
0,13,B1,b,b,True,1041,1,15039,trainPhase
1,13,A5,a,b,False,963,1,15039,trainPhase
2,13,B4,b,a,False,1218,1,15039,trainPhase
3,13,A3,a,a,True,990,1,15039,trainPhase
4,13,A6,a,a,True,1119,1,15039,trainPhase
5,13,A0,a,a,True,908,1,15039,trainPhase
6,13,B0,b,a,False,1197,1,15039,trainPhase
7,13,A1,a,a,True,946,1,15039,trainPhase
8,13,A2,a,a,True,1189,1,15039,trainPhase
9,13,B6,b,b,True,1877,1,15039,trainPhase
10,13,B3,b,a,False,870,1,15039,trainPhase
11,13,B2,b,a,False,822,1,15039,trainPhase
12,13,A4,a,a,True,1006,1,15039,trainPhase
13,13,B7,b,b,True,1247,1,15039,trainPhase
14,13,A7,a,b,False,1079,1,15039,trainPhase
15,13,B5,b,a,False,1150,1,15039,trainPhase
0,14,A2,a,a,True,1406,1,15039,trainPhase
1,14,A3,a,a,True,1184,1,15039,trainPhase
2,14,B5,b,a,False,1150,1,15039,trainPhase
3,14,A0,a,a,True,1094,1,15039,trainPhase
4,14,B6,b,a,False,829,1,15039,trainPhase
5,14,A5,a,b,False,1542,1,15039,trainPhase
6,14,A4,a,a,True,1294,1,15039,trainPhase
7,14,B7,b,a,False,767,1,15039,trainPhase
8,14,B2,b,b,True,1109,1,15039,trainPhase
9,14,B4,b,b,True,1206,1,15039,trainPhase
10,14,B1,b,b,True,1671,1,15039,trainPhase
11,14,A7,a,b,False,2551,1,15039,trainPhase
12,14,A6,a,b,False,1131,1,15039,trainPhase
13,14,A1,a,a,True,1014,1,15039,trainPhase
14,14,B0,b,a,False,862,1,15039,trainPhase
15,14,B3,b,b,True,964,1,15039,trainPhase
0,0,B5,b,a,False,1854,1,15044,trainPhase
1,0,A1,a,b,False,1478,1,15044,trainPhase
2,0,B0,b,b,True,4025,1,15044,trainPhase
3,0,B2,b,b,True,1530,1,15044,trainPhase
4,0,A2,a,b,False,1381,1,15044,trainPhase
5,0,B3,b,b,True,1182,1,15044,trainPhase
6,0,B4,b,b,True,1121,1,15044,trainPhase
7,0,A3,a,a,True,2356,1,15044,trainPhase
8,0,A6,a,b,False,2115,1,15044,trainPhase
9,0,B7,b,b,True,4563,1,15044,trainPhase
10,0,A7,a,a,True,1230,1,15044,trainPhase
11,0,A5,a,a,True,2695,1,15044,trainPhase
12,0,B6,b,a,False,2340,1,15044,trainPhase
13,0,A0,a,b,False,2883,1,15044,trainPhase
14,0,B1,b,b,True,5914,1,15044,trainPhase
15,0,A4,a,a,True,5584,1,15044,trainPhase
0,1,A4,a,a,True,1303,1,15044,trainPhase
1,1,B3,b,b,True,3560,1,15044,trainPhase
2,1,A5,a,a,True,1331,1,15044,trainPhase
3,1,A3,a,a,True,1943,1,15044,trainPhase
4,1,B4,b,a,False,5374,1,15044,trainPhase
5,1,B1,b,b,True,4683,1,15044,trainPhase
6,1,A7,a,a,True,3491,1,15044,trainPhase
7,1,A1,a,b,False,1802,1,15044,trainPhase
8,1,A2,a,a,True,3331,1,15044,trainPhase
9,1,B0,b,b,True,10770,1,15044,trainPhase
10,1,B2,b,a,False,5573,1,15044,trainPhase
11,1,B7,b,b,True,2165,1,15044,trainPhase
12,1,A0,a,b,False,3712,1,15044,trainPhase
13,1,A6,a,b,False,2289,1,15044,trainPhase
14,1,B5,b,a,False,2293,1,15044,trainPhase
15,1,B6,b,a,False,9474,1,15044,trainPhase
0,2,B0,b,b,True,20507,1,15044,trainPhase
1,2,A7,a,a,True,10525,1,15044,trainPhase
2,2,B7,b,a,False,4509,1,15044,trainPhase
3,2,A3,a,b,False,1905,1,15044,trainPhase
4,2,B3,b,b,True,8681,1,15044,trainPhase
5,2,A4,a,a,True,1921,1,15044,trainPhase
6,2,A5,a,a,True,765,1,15044,trainPhase
7,2,B6,b,a,False,942,1,15044,trainPhase
8,2,B1,b,b,True,21584,1,15044,trainPhase
9,2,A6,a,a,True,14821,1,15044,trainPhase
10,2,A0,a,b,False,6071,1,15044,trainPhase
11,2,B4,b,b,True,1775,1,15044,trainPhase
12,2,A1,a,b,False,1671,1,15044,trainPhase
13,2,B5,b,a,False,23097,1,15044,trainPhase
14,2,A2,a,a,True,7118,1,15044,trainPhase
15,2,B2,b,b,True,3039,1,15044,trainPhase
0,3,B2,b,b,True,1382,1,15044,trainPhase
1,3,A2,a,a,True,1248,1,15044,trainPhase
2,3,B7,b,a,False,20386,1,15044,trainPhase
3,3,A0,a,b,False,8748,1,15044,trainPhase
4,3,B4,b,b,True,9116,1,15044,trainPhase
5,3,A3,a,a,True,4219,1,15044,trainPhase
6,3,A7,a,b,False,10418,1,15044,trainPhase
7,3,A4,a,b,False,5548,1,15044,trainPhase
8,3,B5,b,a,False,4014,1,15044,trainPhase
9,3,A5,a,a,True,2022,1,15044,trainPhase
10,3,B1,b,b,True,4098,1,15044,trainPhase
11,3,B3,b,b,True,5776,1,15044,trainPhase
12,3,A6,a,b,False,1663,1,15044,trainPhase
13,3,A1,a,a,True,6685,1,15044,trainPhase
14,3,B0,b,b,True,8968,1,15044,trainPhase
15,3,B6,b,b,True,31045,1,15044,trainPhase
0,4,B3,b,b,True,5586,1,15044,trainPhase
1,4,A6,a,a,True,2018,1,15044,trainPhase
2,4,A0,a,a,True,8562,1,15044,trainPhase
3,4,A4,a,b,False,9809,1,15044,trainPhase
4,4,A3,a,a,True,8177,1,15044,trainPhase
5,4,B6,b,b,True,4019,1,15044,trainPhase
6,4,A1,a,b,False,4344,1,15044,trainPhase
7,4,B2,b,b,True,10221,1,15044,trainPhase
8,4,A5,a,a,True,3105,1,15044,trainPhase
9,4,A2,a,a,True,4900,1,15044,trainPhase
10,4,A7,a,b,False,13214,1,15044,trainPhase
11,4,B0,b,b,True,6924,1,15044,trainPhase
12,4,B1,b,a,False,1649,1,15044,trainPhase
13,4,B7,b,a,False,4440,1,15044,trainPhase
14,4,B5,b,a,False,10629,1,15044,trainPhase
15,4,B4,b,b,True,1096,1,15044,trainPhase
0,5,B6,b,b,True,850,1,15044,trainPhase
1,5,B5,b,b,True,840,1,15044,trainPhase
2,5,A4,a,a,True,2487,1,15044,trainPhase
3,5,A5,a,b,False,2046,1,15044,trainPhase
4,5,A2,a,a,True,3432,1,15044,trainPhase
5,5,A7,a,b,False,2437,1,15044,trainPhase
6,5,B4,b,b,True,1540,1,15044,trainPhase
7,5,A3,a,b,False,3083,1,15044,trainPhase
8,5,A6,a,a,True,4773,1,15044,trainPhase
9,5,B7,b,b,True,3419,1,15044,trainPhase
10,5,B0,b,b,True,1991,1,15044,trainPhase
11,5,B2,b,a,False,1641,1,15044,trainPhase
12,5,A1,a,b,False,7894,1,15044,trainPhase
13,5,A0,a,a,True,1679,1,15044,trainPhase
14,5,B1,b,b,True,3570,1,15044,trainPhase
15,5,B3,b,b,True,1690,1,15044,trainPhase
0,6,A3,a,a,True,3725,1,15044,trainPhase
1,6,B0,b,b,True,2838,1,15044,trainPhase
2,6,A6,a,b,False,1664,1,15044,trainPhase
3,6,B2,b,a,False,3445,1,15044,trainPhase
4,6,B6,b,a,False,1970,1,15044,trainPhase
5,6,A2,a,a,True,3073,1,15044,trainPhase
6,6,A5,a,b,False,2190,1,15044,trainPhase
7,6,A0,a,a,True,6469,1,15044,trainPhase
8,6,A7,a,b,False,2690,1,15044,trainPhase
9,6,B4,b,b,True,1201,1,15044,trainPhase
10,6,B1,b,b,True,2426,1,15044,trainPhase
11,6,A1,a,a,True,13144,1,15044,trainPhase
12,6,B5,b,b,True,2567,1,15044,trainPhase
13,6,B3,b,b,True,1659,1,15044,trainPhase
14,6,B7,b,b,True,1735,1,15044,trainPhase
15,6,A4,a,a,True,2329,1,15044,trainPhase
0,7,A5,a,a,True,3412,1,15044,trainPhase
1,7,B1,b,b,True,1573,1,15044,trainPhase
2,7,B0,b,b,True,1334,1,15044,trainPhase
3,7,A4,a,a,True,3186,1,15044,trainPhase
4,7,B5,b,b,True,6017,1,15044,trainPhase
5,7,B7,b,a,False,2022,1,15044,trainPhase
6,7,A7,a,a,True,1319,1,15044,trainPhase
7,7,B2,b,b,True,2675,1,15044,trainPhase
8,7,A1,a,a,True,7845,1,15044,trainPhase
9,7,A0,a,a,True,4003,1,15044,trainPhase
10,7,A2,a,a,True,1482,1,15044,trainPhase
11,7,A6,a,a,True,4848,1,15044,trainPhase
12,7,B3,b,b,True,1100,1,15044,trainPhase
13,7,B6,b,a,False,3582,1,15044,trainPhase
14,7,B4,b,a,False,2427,1,15044,trainPhase
15,7,A3,a,a,True,1868,1,15044,trainPhase
0,8,B0,b,b,True,5457,1,15044,trainPhase
1,8,B1,b,b,True,1441,1,15044,trainPhase
2,8,B2,b,a,False,2817,1,15044,trainPhase
3,8,A5,a,a,True,7616,1,15044,trainPhase
4,8,B3,b,b,True,1680,1,15044,trainPhase
5,8,A1,a,a,True,1717,1,15044,trainPhase
6,8,A2,a,a,True,1648,1,15044,trainPhase
7,8,A3,a,b,False,1985,1,15044,trainPhase
8,8,A7,a,a,True,4358,1,15044,trainPhase
9,8,A0,a,a,True,4826,1,15044,trainPhase
10,8,B4,b,b,True,1587,1,15044,trainPhase
11,8,B7,b,b,True,1261,1,15044,trainPhase
12,8,A4,a,a,True,1559,1,15044,trainPhase
13,8,B6,b,a,False,2275,1,15044,trainPhase
14,8,B5,b,b,True,1438,1,15044,trainPhase
15,8,A6,a,a,True,2231,1,15044,trainPhase
0,9,A2,a,a,True,1563,1,15044,trainPhase
1,9,B3,b,b,True,1529,1,15044,trainPhase
2,9,B4,b,b,True,844,1,15044,trainPhase
3,9,A4,a,a,True,2907,1,15044,trainPhase
4,9,A6,a,a,True,1806,1,15044,trainPhase
5,9,B2,b,a,False,1588,1,15044,trainPhase
6,9,A7,a,b,False,2209,1,15044,trainPhase
7,9,A0,a,a,True,1863,1,15044,trainPhase
8,9,B5,b,b,True,1482,1,15044,trainPhase
9,9,A5,a,a,True,1891,1,15044,trainPhase
10,9,B6,b,b,True,1732,1,15044,trainPhase
11,9,A3,a,a,True,2602,1,15044,trainPhase
12,9,B7,b,b,True,1124,1,15044,trainPhase
13,9,A1,a,a,True,4844,1,15044,trainPhase
14,9,B1,b,a,False,1881,1,15044,trainPhase
15,9,B0,b,b,True,1595,1,15044,trainPhase
0,10,B4,b,b,True,2864,1,15044,trainPhase
1,10,B0,b,b,True,1529,1,15044,trainPhase
2,10,A6,a,a,True,2528,1,15044,trainPhase
3,10,A1,a,a,True,1996,1,15044,trainPhase
4,10,A4,a,a,True,1794,1,15044,trainPhase
5,10,B2,b,b,True,1084,1,15044,trainPhase
6,10,A5,a,a,True,2321,1,15044,trainPhase
7,10,A3,a,a,True,2275,1,15044,trainPhase
8,10,B3,b,b,True,1704,1,15044,trainPhase
9,10,B7,b,b,True,1826,1,15044,trainPhase
10,10,A7,a,a,True,1340,1,15044,trainPhase
11,10,B6,b,b,True,1416,1,15044,trainPhase
12,10,A0,a,a,True,1711,1,15044,trainPhase
13,10,B5,b,b,True,2523,1,15044,trainPhase
14,10,A2,a,a,True,1114,1,15044,trainPhase
0,0,A7,a,a,True,2783,1,14357,trainPhase
1,0,A4,a,a,True,1518,1,14357,trainPhase
2,0,B1,b,a,False,1426,1,14357,trainPhase
3,0,A3,a,b,False,1254,1,14357,trainPhase
4,0,A5,a,a,True,1108,1,14357,trainPhase
5,0,B7,b,b,True,1356,1,14357,trainPhase
6,0,B5,b,a,False,844,1,14357,trainPhase
7,0,B2,b,a,False,904,1,14357,trainPhase
8,0,B0,b,a,False,1105,1,14357,trainPhase
9,0,A2,a,a,True,824,1,14357,trainPhase
10,0,B3,b,b,True,2370,1,14357,trainPhase
11,0,B6,b,b,True,1584,1,14357,trainPhase
12,0,B4,b,a,False,1055,1,14357,trainPhase
13,0,A6,a,a,True,2102,1,14357,trainPhase
14,0,A0,a,a,True,1021,1,14357,trainPhase
15,0,A1,a,b,False,946,1,14357,trainPhase
0,1,B3,b,b,True,961,1,14357,trainPhase
1,1,A7,a,a,True,859,1,14357,trainPhase
2,1,A1,a,a,True,918,1,14357,trainPhase
3,1,A4,a,a,True,1088,1,14357,trainPhase
4,1,B0,b,b,True,836,1,14357,trainPhase
5,1,A0,a,a,True,1231,1,14357,trainPhase
6,1,B5,b,b,True,1401,1,14357,trainPhase
7,1,B6,b,a,False,899,1,14357,trainPhase
8,1,A3,a,a,True,658,1,14357,trainPhase
9,1,A6,a,a,True,659,1,14357,trainPhase
10,1,B1,b,b,True,623,1,14357,trainPhase
11,1,B7,b,b,True,920,1,14357,trainPhase
12,1,A5,a,a,True,990,1,14357,trainPhase
13,1,B4,b,a,False,1410,1,14357,trainPhase
14,1,A2,a,a,True,1070,1,14357,trainPhase
15,1,B2,b,b,True,540,1,14357,trainPhase
0,2,B2,b,b,True,901,1,14357,trainPhase
1,2,A6,a,a,True,609,1,14357,trainPhase
2,2,B7,b,a,False,952,1,14357,trainPhase
3,2,B5,b,b,True,508,1,14357,trainPhase
4,2,A3,a,b,False,746,1,14357,trainPhase
5,2,A1,a,a,True,661,1,14357,trainPhase
6,2,A4,a,b,False,443,1,14357,trainPhase
7,2,B1,b,a,False,933,1,14357,trainPhase
8,2,B3,b,a,False,374,1,14357,trainPhase
9,2,A0,a,a,True,421,1,14357,trainPhase
10,2,A2,a,a,True,728,1,14357,trainPhase
11,2,B6,b,b,True,504,1,14357,trainPhase
12,2,A7,a,b,False,717,1,14357,trainPhase
13,2,B4,b,a,False,599,1,14357,trainPhase
14,2,A5,a,a,True,902,1,14357,trainPhase
15,2,B0,b,b,True,463,1,14357,trainPhase
0,3,A2,a,b,False,391,1,14357,trainPhase
1,3,A5,a,b,False,449,1,14357,trainPhase
2,3,B5,b,a,False,494,1,14357,trainPhase
3,3,B7,b,a,False,466,1,14357,trainPhase
4,3,B4,b,a,False,1142,1,14357,trainPhase
5,3,A1,a,a,True,791,1,14357,trainPhase
6,3,A4,a,a,True,1200,1,14357,trainPhase
7,3,A3,a,a,True,680,1,14357,trainPhase
8,3,A7,a,b,False,933,1,14357,trainPhase
9,3,B6,b,a,False,746,1,14357,trainPhase
10,3,B1,b,a,False,662,1,14357,trainPhase
11,3,B3,b,b,True,488,1,14357,trainPhase
12,3,B2,b,a,False,630,1,14357,trainPhase
13,3,A6,a,a,True,680,1,14357,trainPhase
14,3,B0,b,b,True,637,1,14357,trainPhase
15,3,A0,a,a,True,679,1,14357,trainPhase
0,4,A0,a,a,True,623,1,14357,trainPhase
1,4,A1,a,a,True,634,1,14357,trainPhase
2,4,B2,b,b,True,582,1,14357,trainPhase
3,4,B1,b,b,True,457,1,14357,trainPhase
4,4,A4,a,a,True,421,1,14357,trainPhase
5,4,A2,a,b,False,406,1,14357,trainPhase
6,4,A3,a,a,True,670,1,14357,trainPhase
7,4,B4,b,b,True,459,1,14357,trainPhase
8,4,B6,b,b,True,1756,1,14357,trainPhase
9,4,B0,b,a,False,422,1,14357,trainPhase
10,4,B5,b,b,True,544,1,14357,trainPhase
11,4,A6,a,a,True,374,1,14357,trainPhase
12,4,B3,b,b,True,494,1,14357,trainPhase
13,4,A7,a,a,True,397,1,14357,trainPhase
14,4,A5,a,a,True,547,1,14357,trainPhase
15,4,B7,b,a,False,411,1,14357,trainPhase
0,5,A0,a,b,False,438,1,14357,trainPhase
1,5,A2,a,b,False,446,1,14357,trainPhase
2,5,A1,a,a,True,501,1,14357,trainPhase
3,5,B5,b,b,True,478,1,14357,trainPhase
4,5,A6,a,a,True,558,1,14357,trainPhase
5,5,A7,a,b,False,635,1,14357,trainPhase
6,5,B0,b,a,False,552,1,14357,trainPhase
7,5,B1,b,a,False,367,1,14357,trainPhase
8,5,B3,b,a,False,349,1,14357,trainPhase
9,5,A4,a,a,True,370,1,14357,trainPhase
10,5,B4,b,a,False,406,1,14357,trainPhase
11,5,A3,a,a,True,390,1,14357,trainPhase
12,5,B7,b,a,False,445,1,14357,trainPhase
13,5,B2,b,b,True,334,1,14357,trainPhase
14,5,A5,a,a,True,525,1,14357,trainPhase
15,5,B6,b,b,True,749,1,14357,trainPhase
0,6,B3,b,a,False,467,1,14357,trainPhase
1,6,B6,b,a,False,566,1,14357,trainPhase
2,6,B5,b,b,True,505,1,14357,trainPhase
3,6,A6,a,a,True,365,1,14357,trainPhase
4,6,A2,a,b,False,324,1,14357,trainPhase
5,6,A3,a,a,True,413,1,14357,trainPhase
6,6,A5,a,b,False,870,1,14357,trainPhase
7,6,B1,b,a,False,318,1,14357,trainPhase
8,6,B7,b,b,True,461,1,14357,trainPhase
9,6,B4,b,b,True,365,1,14357,trainPhase
10,6,A7,a,a,True,2069,1,14357,trainPhase
11,6,B2,b,b,True,641,1,14357,trainPhase
12,6,A1,a,a,True,422,1,14357,trainPhase
13,6,A4,a,b,False,773,1,14357,trainPhase
14,6,A0,a,a,True,1266,1,14357,trainPhase
15,6,B0,b,a,False,2292,1,14357,trainPhase
0,7,A7,a,a,True,374,1,14357,trainPhase
1,7,B7,b,a,False,357,1,14357,trainPhase
2,7,A0,a,b,False,422,1,14357,trainPhase
3,7,B3,b,b,True,526,1,14357,trainPhase
4,7,A2,a,a,True,513,1,14357,trainPhase
5,7,B4,b,a,False,350,1,14357,trainPhase
6,7,B0,b,b,True,485,1,14357,trainPhase
7,7,A6,a,b,False,428,1,14357,trainPhase
8,7,B6,b,b,True,334,1,14357,trainPhase
9,7,B5,b,a,False,293,1,14357,trainPhase
10,7,A3,a,a,True,509,1,14357,trainPhase
11,7,A5,a,a,True,369,1,14357,trainPhase
12,7,A1,a,b,False,535,1,14357,trainPhase
13,7,B2,b,a,False,333,1,14357,trainPhase
14,7,A4,a,a,True,358,1,14357,trainPhase
15,7,B1,b,a,False,646,1,14357,trainPhase
0,8,B2,b,a,False,349,1,14357,trainPhase
1,8,B3,b,a,False,356,1,14357,trainPhase
2,8,B1,b,a,False,414,1,14357,trainPhase
3,8,B6,b,a,False,470,1,14357,trainPhase
4,8,B0,b,b,True,956,1,14357,trainPhase
5,8,B7,b,b,True,2390,1,14357,trainPhase
6,8,A3,a,b,False,1039,1,14357,trainPhase
7,8,A1,a,b,False,563,1,14357,trainPhase
8,8,A0,a,a,True,950,1,14357,trainPhase
9,8,A4,a,a,True,951,1,14357,trainPhase
10,8,B5,b,b,True,718,1,14357,trainPhase
11,8,A7,a,b,False,374,1,14357,trainPhase
12,8,A2,a,a,True,446,1,14357,trainPhase
13,8,A5,a,a,True,531,1,14357,trainPhase
14,8,A6,a,b,False,428,1,14357,trainPhase
15,8,B4,b,b,True,341,1,14357,trainPhase
0,9,B5,b,a,False,423,1,14357,trainPhase
1,9,A0,a,b,False,381,1,14357,trainPhase
2,9,A1,a,a,True,416,1,14357,trainPhase
3,9,B0,b,b,True,373,1,14357,trainPhase
4,9,A2,a,a,True,374,1,14357,trainPhase
5,9,B2,b,a,False,625,1,14357,trainPhase
6,9,A3,a,b,False,374,1,14357,trainPhase
7,9,B7,b,b,True,973,1,14357,trainPhase
8,9,A7,a,b,False,746,1,14357,trainPhase
9,9,B3,b,a,False,4740,1,14357,trainPhase
10,9,A6,a,a,True,662,1,14357,trainPhase
11,9,A5,a,b,False,422,1,14357,trainPhase
12,9,B1,b,a,False,389,1,14357,trainPhase
13,9,B4,b,b,True,415,1,14357,trainPhase
14,9,A4,a,a,True,942,1,14357,trainPhase
15,9,B6,b,b,True,430,1,14357,trainPhase
0,10,A4,a,a,True,349,1,14357,trainPhase
1,10,B0,b,b,True,1061,1,14357,trainPhase
2,10,A0,a,a,True,844,1,14357,trainPhase
3,10,B5,b,b,True,654,1,14357,trainPhase
4,10,A7,a,a,True,341,1,14357,trainPhase
5,10,B6,b,b,True,333,1,14357,trainPhase
6,10,A6,a,a,True,390,1,14357,trainPhase
7,10,A1,a,b,False,349,1,14357,trainPhase
8,10,B3,b,a,False,413,1,14357,trainPhase
9,10,B4,b,b,True,541,1,14357,trainPhase
10,10,B2,b,a,False,577,1,14357,trainPhase
11,10,A5,a,a,True,493,1,14357,trainPhase
12,10,B7,b,a,False,343,1,14357,trainPhase
13,10,B1,b,a,False,276,1,14357,trainPhase
14,10,A3,a,b,False,663,1,14357,trainPhase
15,10,A2,a,a,True,765,1,14357,trainPhase
0,11,A2,a,b,False,676,1,14357,trainPhase
1,11,A4,a,a,True,358,1,14357,trainPhase
2,11,B4,b,a,False,471,1,14357,trainPhase
3,11,B7,b,b,True,586,1,14357,trainPhase
4,11,B6,b,a,False,398,1,14357,trainPhase
5,11,B3,b,b,True,413,1,14357,trainPhase
6,11,A7,a,b,False,622,1,14357,trainPhase
7,11,A5,a,a,True,931,1,14357,trainPhase
8,11,A6,a,b,False,1011,1,14357,trainPhase
9,11,B1,b,a,False,1173,1,14357,trainPhase
10,11,B5,b,b,True,1557,1,14357,trainPhase
11,11,A3,a,a,True,6678,1,14357,trainPhase
12,11,B0,b,b,True,806,1,14357,trainPhase
13,11,A0,a,b,False,407,1,14357,trainPhase
14,11,B2,b,a,False,356,1,14357,trainPhase
15,11,A1,a,b,False,309,1,14357,trainPhase
0,12,A5,a,a,True,429,1,14357,trainPhase
1,12,A6,a,b,False,309,1,14357,trainPhase
2,12,B5,b,b,True,357,1,14357,trainPhase
3,12,B6,b,b,True,317,1,14357,trainPhase
4,12,A2,a,b,False,246,1,14357,trainPhase
5,12,A3,a,b,False,214,1,14357,trainPhase
6,12,B1,b,a,False,742,1,14357,trainPhase
7,12,B4,b,a,False,399,1,14357,trainPhase
8,12,A7,a,b,False,278,1,14357,trainPhase
9,12,A0,a,a,True,286,1,14357,trainPhase
10,12,B0,b,b,True,334,1,14357,trainPhase
11,12,A4,a,a,True,230,1,14357,trainPhase
12,12,B2,b,a,False,277,1,14357,trainPhase
13,12,B7,b,b,True,870,1,14357,trainPhase
14,12,A1,a,a,True,231,1,14357,trainPhase
15,12,B3,b,b,True,198,1,14357,trainPhase
0,13,B2,b,b,True,198,1,14357,trainPhase
1,13,B7,b,a,False,166,1,14357,trainPhase
2,13,B0,b,a,False,902,1,14357,trainPhase
3,13,A2,a,a,True,222,1,14357,trainPhase
4,13,A7,a,a,True,143,1,14357,trainPhase
5,13,B6,b,b,True,254,1,14357,trainPhase
6,13,B1,b,a,False,462,1,14357,trainPhase
7,13,A1,a,b,False,491,1,14357,trainPhase
8,13,B4,b,a,False,1122,1,14357,trainPhase
9,13,A3,a,b,False,938,1,14357,trainPhase
10,13,A6,a,a,True,758,1,14357,trainPhase
11,13,A5,a,b,False,660,1,14357,trainPhase
12,13,A4,a,a,True,1012,1,14357,trainPhase
13,13,B3,b,b,True,8523,1,14357,trainPhase
14,13,A0,a,a,True,1104,1,14357,trainPhase
15,13,B5,b,b,True,1053,1,14357,trainPhase
0,14,A0,a,a,True,849,1,14357,trainPhase
1,14,B4,b,b,True,999,1,14357,trainPhase
2,14,B7,b,b,True,1643,1,14357,trainPhase
3,14,B1,b,a,False,830,1,14357,trainPhase
4,14,A3,a,b,False,1780,1,14357,trainPhase
5,14,A5,a,a,True,1407,1,14357,trainPhase
6,14,B6,b,a,False,1564,1,14357,trainPhase
7,14,B5,b,b,True,405,1,14357,trainPhase
8,14,B2,b,a,False,1053,1,14357,trainPhase
9,14,B0,b,b,True,366,1,14357,trainPhase
10,14,A1,a,a,True,438,1,14357,trainPhase
11,14,A2,a,b,False,718,1,14357,trainPhase
12,14,A4,a,a,True,683,1,14357,trainPhase
13,14,A7,a,b,False,777,1,14357,trainPhase
14,14,A6,a,a,True,437,1,14357,trainPhase
15,14,B3,b,b,True,358,1,14357,trainPhase
0,0,A6,a,b,False,5211,1,15066,trainPhase
1,0,A0,a,a,True,1956,1,15066,trainPhase
2,0,B6,b,a,False,1265,1,15066,trainPhase
3,0,B3,b,a,False,1263,1,15066,trainPhase
4,0,B5,b,b,True,2079,1,15066,trainPhase
5,0,A4,a,a,True,1130,1,15066,trainPhase
6,0,A2,a,a,True,1479,1,15066,trainPhase
7,0,B4,b,b,True,1514,1,15066,trainPhase
8,0,B7,b,b,True,1073,1,15066,trainPhase
9,0,B1,b,a,False,986,1,15066,trainPhase
10,0,A1,a,b,False,1422,1,15066,trainPhase
11,0,B2,b,a,False,2247,1,15066,trainPhase
12,0,A7,a,a,True,1295,1,15066,trainPhase
13,0,A3,a,a,True,1283,1,15066,trainPhase
14,0,A5,a,b,False,1085,1,15066,trainPhase
15,0,B0,b,b,True,711,1,15066,trainPhase
0,1,A2,a,b,False,1691,1,15066,trainPhase
1,1,A6,a,a,True,5919,1,15066,trainPhase
2,1,B5,b,a,False,1277,1,15066,trainPhase
3,1,B2,b,a,False,1682,1,15066,trainPhase
4,1,A4,a,a,True,999,1,15066,trainPhase
5,1,A0,a,a,True,1353,1,15066,trainPhase
6,1,A5,a,b,False,2872,1,15066,trainPhase
7,1,A7,a,a,True,2718,1,15066,trainPhase
8,1,B0,b,a,False,3978,1,15066,trainPhase
9,1,B1,b,b,True,1196,1,15066,trainPhase
10,1,A1,a,a,True,1024,1,15066,trainPhase
11,1,A3,a,a,True,1145,1,15066,trainPhase
12,1,B7,b,a,False,1039,1,15066,trainPhase
13,1,B3,b,b,True,1079,1,15066,trainPhase
14,1,B6,b,b,True,1380,1,15066,trainPhase
15,1,B4,b,b,True,830,1,15066,trainPhase
0,2,A3,a,b,False,733,1,15066,trainPhase
1,2,B4,b,b,True,1200,1,15066,trainPhase
2,2,B7,b,b,True,1015,1,15066,trainPhase
3,2,B0,b,a,False,1054,1,15066,trainPhase
4,2,B3,b,b,True,1409,1,15066,trainPhase
5,2,A5,a,b,False,1694,1,15066,trainPhase
6,2,A6,a,b,False,1068,1,15066,trainPhase
7,2,B2,b,a,False,927,1,15066,trainPhase
8,2,A1,a,a,True,890,1,15066,trainPhase
9,2,A0,a,a,True,1270,1,15066,trainPhase
10,2,A4,a,b,False,2038,1,15066,trainPhase
11,2,B6,b,a,False,1146,1,15066,trainPhase
12,2,B1,b,a,False,929,1,15066,trainPhase
13,2,A7,a,a,True,1017,1,15066,trainPhase
14,2,A2,a,a,True,1999,1,15066,trainPhase
15,2,B5,b,b,True,1638,1,15066,trainPhase
0,3,A0,a,b,False,1604,1,15066,trainPhase
1,3,B1,b,b,True,1204,1,15066,trainPhase
2,3,B5,b,a,False,3689,1,15066,trainPhase
3,3,B4,b,a,False,1160,1,15066,trainPhase
4,3,B7,b,b,True,1003,1,15066,trainPhase
5,3,A3,a,b,False,1139,1,15066,trainPhase
6,3,A4,a,a,True,3106,1,15066,trainPhase
7,3,B0,b,a,False,2634,1,15066,trainPhase
8,3,A5,a,b,False,2333,1,15066,trainPhase
9,3,A6,a,a,True,1303,1,15066,trainPhase
10,3,B6,b,a,False,1899,1,15066,trainPhase
11,3,B2,b,a,False,3791,1,15066,trainPhase
12,3,A2,a,a,True,1666,1,15066,trainPhase
13,3,B3,b,b,True,3216,1,15066,trainPhase
14,3,A7,a,b,False,1185,1,15066,trainPhase
15,3,A1,a,a,True,1338,1,15066,trainPhase
0,4,A0,a,a,True,1281,1,15066,trainPhase
1,4,B3,b,b,True,1854,1,15066,trainPhase
2,4,B1,b,b,True,3038,1,15066,trainPhase
3,4,B5,b,a,False,2260,1,15066,trainPhase
4,4,A4,a,b,False,4579,1,15066,trainPhase
5,4,A2,a,a,True,1083,1,15066,trainPhase
6,4,B2,b,a,False,2459,1,15066,trainPhase
7,4,B0,b,b,True,1255,1,15066,trainPhase
8,4,A1,a,a,True,1884,1,15066,trainPhase
9,4,B6,b,b,True,2264,1,15066,trainPhase
10,4,B4,b,b,True,2078,1,15066,trainPhase
11,4,A3,a,a,True,1399,1,15066,trainPhase
12,4,B7,b,b,True,1341,1,15066,trainPhase
13,4,A5,a,b,False,1462,1,15066,trainPhase
14,4,A7,a,b,False,1055,1,15066,trainPhase
15,4,A6,a,a,True,777,1,15066,trainPhase
0,5,A7,a,a,True,1269,1,15066,trainPhase
1,5,B5,b,a,False,1299,1,15066,trainPhase
2,5,A0,a,a,True,1056,1,15066,trainPhase
3,5,A5,a,b,False,2679,1,15066,trainPhase
4,5,A6,a,a,True,995,1,15066,trainPhase
5,5,B1,b,a,False,1730,1,15066,trainPhase
6,5,B7,b,a,False,1141,1,15066,trainPhase
7,5,B6,b,a,False,2645,1,15066,trainPhase
8,5,A2,a,a,True,912,1,15066,trainPhase
9,5,A1,a,a,True,2130,1,15066,trainPhase
10,5,A3,a,a,True,1432,1,15066,trainPhase
11,5,A4,a,b,False,1160,1,15066,trainPhase
12,5,B0,b,a,False,1422,1,15066,trainPhase
13,5,B4,b,a,False,3230,1,15066,trainPhase
14,5,B2,b,b,True,2377,1,15066,trainPhase
15,5,B3,b,a,False,1937,1,15066,trainPhase
0,6,A7,a,a,True,911,1,15066,trainPhase
1,6,B2,b,b,True,1344,1,15066,trainPhase
2,6,B1,b,b,True,2056,1,15066,trainPhase
3,6,A2,a,a,True,1337,1,15066,trainPhase
4,6,B7,b,b,True,1784,1,15066,trainPhase
5,6,A3,a,a,True,1799,1,15066,trainPhase
6,6,B6,b,b,True,3566,1,15066,trainPhase
7,6,A6,a,a,True,2405,1,15066,trainPhase
8,6,B0,b,b,True,2249,1,15066,trainPhase
9,6,B5,b,a,False,5645,1,15066,trainPhase
10,6,A5,a,a,True,3091,1,15066,trainPhase
11,6,A0,a,a,True,1414,1,15066,trainPhase
12,6,B3,b,b,True,1254,1,15066,trainPhase
13,6,B4,b,b,True,1229,1,15066,trainPhase
14,6,A1,a,a,True,2151,1,15066,trainPhase
15,6,A4,a,a,True,2615,1,15066,trainPhase
0,7,B7,b,b,True,1365,1,15066,trainPhase
1,7,A7,a,a,True,2383,1,15066,trainPhase
2,7,B0,b,b,True,1777,1,15066,trainPhase
3,7,A3,a,a,True,1690,1,15066,trainPhase
4,7,A1,a,a,True,982,1,15066,trainPhase
5,7,A0,a,a,True,1847,1,15066,trainPhase
6,7,A6,a,a,True,1522,1,15066,trainPhase
7,7,B3,b,b,True,1082,1,15066,trainPhase
8,7,A4,a,b,False,2917,1,15066,trainPhase
9,7,B4,b,a,False,1235,1,15066,trainPhase
10,7,A2,a,a,True,1272,1,15066,trainPhase
11,7,B2,b,b,True,1058,1,15066,trainPhase
12,7,A5,a,a,True,3743,1,15066,trainPhase
13,7,B6,b,b,True,2616,1,15066,trainPhase
14,7,B1,b,a,False,1435,1,15066,trainPhase
15,7,B5,b,a,False,972,1,15066,trainPhase
0,8,B5,b,b,True,1094,1,15066,trainPhase
1,8,A4,a,b,False,969,1,15066,trainPhase
2,8,A1,a,a,True,1367,1,15066,trainPhase
3,8,A6,a,a,True,1998,1,15066,trainPhase
4,8,B2,b,b,True,1252,1,15066,trainPhase
5,8,A0,a,a,True,1049,1,15066,trainPhase
6,8,A5,a,b,False,1866,1,15066,trainPhase
7,8,B0,b,b,True,825,1,15066,trainPhase
8,8,A2,a,a,True,997,1,15066,trainPhase
9,8,A7,a,a,True,1277,1,15066,trainPhase
10,8,B6,b,b,True,1093,1,15066,trainPhase
11,8,B7,b,a,False,1591,1,15066,trainPhase
12,8,B3,b,a,False,906,1,15066,trainPhase
13,8,B4,b,a,False,1190,1,15066,trainPhase
14,8,B1,b,b,True,1395,1,15066,trainPhase
15,8,A3,a,a,True,1461,1,15066,trainPhase
0,9,A7,a,a,True,1166,1,15066,trainPhase
1,9,B6,b,b,True,1207,1,15066,trainPhase
2,9,B5,b,b,True,3117,1,15066,trainPhase
3,9,A3,a,a,True,1184,1,15066,trainPhase
4,9,B7,b,b,True,2410,1,15066,trainPhase
5,9,A2,a,a,True,920,1,15066,trainPhase
6,9,A0,a,a,True,875,1,15066,trainPhase
7,9,B4,b,b,True,1215,1,15066,trainPhase
8,9,A1,a,b,False,1033,1,15066,trainPhase
9,9,A4,a,a,True,1289,1,15066,trainPhase
10,9,B1,b,a,False,1021,1,15066,trainPhase
11,9,A6,a,a,True,3341,1,15066,trainPhase
12,9,A5,a,b,False,1554,1,15066,trainPhase
13,9,B3,b,b,True,922,1,15066,trainPhase
14,9,B2,b,a,False,1748,1,15066,trainPhase
15,9,B0,b,a,False,1117,1,15066,trainPhase
0,10,B5,b,a,False,1145,1,15066,trainPhase
1,10,B3,b,a,False,691,1,15066,trainPhase
2,10,B2,b,a,False,877,1,15066,trainPhase
3,10,B7,b,a,False,1047,1,15066,trainPhase
4,10,A7,a,a,True,1016,1,15066,trainPhase
5,10,A6,a,b,False,1173,1,15066,trainPhase
6,10,A0,a,a,True,1095,1,15066,trainPhase
7,10,B1,b,a,False,1204,1,15066,trainPhase
8,10,B6,b,a,False,1330,1,15066,trainPhase
9,10,A5,a,a,True,676,1,15066,trainPhase
10,10,A4,a,b,False,1029,1,15066,trainPhase
11,10,B4,b,a,False,1656,1,15066,trainPhase
12,10,B0,b,a,False,1511,1,15066,trainPhase
13,10,A3,a,a,True,1160,1,15066,trainPhase
14,10,A2,a,a,True,1020,1,15066,trainPhase
15,10,A1,a,b,False,1736,1,15066,trainPhase
0,11,A6,a,b,False,853,1,15066,trainPhase
1,11,A4,a,b,False,1060,1,15066,trainPhase
2,11,B6,b,a,False,1196,1,15066,trainPhase
3,11,A5,a,a,True,796,1,15066,trainPhase
4,11,A1,a,a,True,1168,1,15066,trainPhase
5,11,B4,b,a,False,1034,1,15066,trainPhase
6,11,A2,a,a,True,891,1,15066,trainPhase
7,11,B2,b,a,False,1235,1,15066,trainPhase
8,11,A0,a,a,True,1128,1,15066,trainPhase
9,11,B3,b,b,True,1363,1,15066,trainPhase
10,11,A3,a,a,True,1450,1,15066,trainPhase
11,11,B1,b,a,False,2018,1,15066,trainPhase
12,11,B5,b,a,False,726,1,15066,trainPhase
13,11,B7,b,a,False,695,1,15066,trainPhase
14,11,A7,a,a,True,969,1,15066,trainPhase
15,11,B0,b,b,True,1261,1,15066,trainPhase
0,12,A6,a,a,True,892,1,15066,trainPhase
1,12,A2,a,a,True,887,1,15066,trainPhase
2,12,A3,a,a,True,979,1,15066,trainPhase
3,12,B6,b,b,True,1177,1,15066,trainPhase
4,12,A1,a,a,True,781,1,15066,trainPhase
5,12,B7,b,b,True,1295,1,15066,trainPhase
6,12,A5,a,a,True,797,1,15066,trainPhase
7,12,B0,b,b,True,1631,1,15066,trainPhase
8,12,B5,b,a,False,849,1,15066,trainPhase
9,12,B4,b,a,False,924,1,15066,trainPhase
10,12,A4,a,a,True,774,1,15066,trainPhase
11,12,A7,a,b,False,1602,1,15066,trainPhase
12,12,A0,a,a,True,901,1,15066,trainPhase
13,12,B1,b,b,True,1720,1,15066,trainPhase
14,12,B3,b,b,True,1663,1,15066,trainPhase
15,12,B2,b,b,True,1222,1,15066,trainPhase
0,13,A2,a,a,True,1312,1,15066,trainPhase
1,13,A1,a,a,True,1359,1,15066,trainPhase
2,13,B5,b,b,True,3033,1,15066,trainPhase
3,13,B0,b,b,True,2298,1,15066,trainPhase
4,13,A0,a,a,True,1375,1,15066,trainPhase
5,13,B4,b,b,True,2004,1,15066,trainPhase
6,13,B2,b,b,True,4543,1,15066,trainPhase
7,13,A5,a,a,True,2089,1,15066,trainPhase
8,13,A3,a,a,True,1776,1,15066,trainPhase
9,13,B3,b,b,True,1434,1,15066,trainPhase
10,13,B1,b,b,True,2829,1,15066,trainPhase
11,13,A7,a,a,True,1455,1,15066,trainPhase
0,0,A6,a,a,True,2583,1,15071,trainPhase
1,0,B5,b,a,False,3088,1,15071,trainPhase
2,0,B6,b,a,False,1535,1,15071,trainPhase
3,0,B3,b,a,False,1089,1,15071,trainPhase
4,0,B0,b,b,True,3670,1,15071,trainPhase
5,0,B1,b,b,True,1450,1,15071,trainPhase
6,0,A1,a,a,True,936,1,15071,trainPhase
7,0,A5,a,b,False,993,1,15071,trainPhase
8,0,A4,a,b,False,1375,1,15071,trainPhase
9,0,A3,a,a,True,2411,1,15071,trainPhase
10,0,A2,a,a,True,2314,1,15071,trainPhase
11,0,B2,b,a,False,1952,1,15071,trainPhase
12,0,B4,b,a,False,1325,1,15071,trainPhase
13,0,A7,a,b,False,1057,1,15071,trainPhase
14,0,A0,a,a,True,2234,1,15071,trainPhase
15,0,B7,b,b,True,5674,1,15071,trainPhase
0,1,A5,a,a,True,1813,1,15071,trainPhase
1,1,A4,a,a,True,1567,1,15071,trainPhase
2,1,A7,a,b,False,2027,1,15071,trainPhase
3,1,A3,a,b,False,1187,1,15071,trainPhase
4,1,B7,b,b,True,2314,1,15071,trainPhase
5,1,A0,a,a,True,2112,1,15071,trainPhase
6,1,B3,b,a,False,1994,1,15071,trainPhase
7,1,B1,b,a,False,1306,1,15071,trainPhase
8,1,A6,a,b,False,1990,1,15071,trainPhase
9,1,B5,b,b,True,1935,1,15071,trainPhase
10,1,B0,b,a,False,3690,1,15071,trainPhase
11,1,A2,a,a,True,1363,1,15071,trainPhase
12,1,A1,a,b,False,1310,1,15071,trainPhase
13,1,B6,b,b,True,1054,1,15071,trainPhase
14,1,B2,b,a,False,1902,1,15071,trainPhase
15,1,B4,b,a,False,1368,1,15071,trainPhase
0,2,A6,a,b,False,1206,1,15071,trainPhase
1,2,A4,a,a,True,2336,1,15071,trainPhase
2,2,A0,a,a,True,1334,1,15071,trainPhase
3,2,B3,b,b,True,1335,1,15071,trainPhase
4,2,A3,a,a,True,1939,1,15071,trainPhase
5,2,B5,b,a,False,1457,1,15071,trainPhase
6,2,A5,a,a,True,1671,1,15071,trainPhase
7,2,A1,a,b,False,1280,1,15071,trainPhase
8,2,A2,a,a,True,1253,1,15071,trainPhase
9,2,B7,b,a,False,896,1,15071,trainPhase
10,2,B4,b,a,False,2004,1,15071,trainPhase
11,2,B2,b,a,False,2058,1,15071,trainPhase
12,2,B0,b,b,True,1337,1,15071,trainPhase
13,2,A7,a,a,True,1305,1,15071,trainPhase
14,2,B6,b,a,False,2030,1,15071,trainPhase
15,2,B1,b,a,False,1668,1,15071,trainPhase
0,3,A4,a,a,True,1539,1,15071,trainPhase
1,3,A3,a,b,False,1233,1,15071,trainPhase
2,3,B1,b,a,False,1964,1,15071,trainPhase
3,3,B6,b,b,True,1371,1,15071,trainPhase
4,3,B7,b,b,True,1286,1,15071,trainPhase
5,3,A1,a,a,True,1384,1,15071,trainPhase
6,3,A0,a,a,True,2262,1,15071,trainPhase
7,3,B2,b,a,False,3167,1,15071,trainPhase
8,3,A6,a,b,False,1834,1,15071,trainPhase
9,3,B5,b,a,False,1525,1,15071,trainPhase
10,3,B0,b,a,False,1038,1,15071,trainPhase
11,3,A7,a,a,True,1569,1,15071,trainPhase
12,3,A5,a,a,True,1542,1,15071,trainPhase
13,3,B3,b,b,True,1545,1,15071,trainPhase
14,3,B4,b,b,True,1003,1,15071,trainPhase
15,3,A2,a,a,True,1505,1,15071,trainPhase
0,4,B3,b,a,False,1131,1,15071,trainPhase
1,4,A2,a,a,True,893,1,15071,trainPhase
2,4,A3,a,a,True,2393,1,15071,trainPhase
3,4,B2,b,a,False,1547,1,15071,trainPhase
4,4,A6,a,b,False,1115,1,15071,trainPhase
5,4,A4,a,b,False,2030,1,15071,trainPhase
6,4,A5,a,a,True,1010,1,15071,trainPhase
7,4,B1,b,a,False,2064,1,15071,trainPhase
8,4,A7,a,a,True,1512,1,15071,trainPhase
9,4,B7,b,a,False,1194,1,15071,trainPhase
10,4,B5,b,a,False,2383,1,15071,trainPhase
11,4,A1,a,a,True,1216,1,15071,trainPhase
12,4,A0,a,a,True,2030,1,15071,trainPhase
13,4,B6,b,a,False,1628,1,15071,trainPhase
14,4,B0,b,a,False,1129,1,15071,trainPhase
15,4,B4,b,a,False,1109,1,15071,trainPhase
0,5,A7,a,b,False,1565,1,15071,trainPhase
1,5,A3,a,a,True,1250,1,15071,trainPhase
2,5,A4,a,a,True,895,1,15071,trainPhase
3,5,B7,b,b,True,1267,1,15071,trainPhase
4,5,A1,a,a,True,3063,1,15071,trainPhase
5,5,A5,a,a,True,1418,1,15071,trainPhase
6,5,B3,b,b,True,1137,1,15071,trainPhase
7,5,B0,b,a,False,3297,1,15071,trainPhase
8,5,B6,b,a,False,1338,1,15071,trainPhase
9,5,B2,b,a,False,1031,1,15071,trainPhase
10,5,A2,a,a,True,469,1,15071,trainPhase
11,5,B4,b,b,True,1547,1,15071,trainPhase
12,5,A0,a,b,False,1155,1,15071,trainPhase
13,5,B1,b,b,True,1662,1,15071,trainPhase
14,5,B5,b,a,False,1022,1,15071,trainPhase
15,5,A6,a,a,True,1046,1,15071,trainPhase
0,6,B3,b,b,True,1752,1,15071,trainPhase
1,6,A7,a,a,True,1361,1,15071,trainPhase
2,6,A0,a,a,True,1878,1,15071,trainPhase
3,6,B0,b,b,True,2854,1,15071,trainPhase
4,6,A5,a,a,True,1227,1,15071,trainPhase
5,6,A4,a,a,True,1077,1,15071,trainPhase
6,6,B5,b,b,True,3787,1,15071,trainPhase
7,6,A2,a,a,True,1589,1,15071,trainPhase
8,6,B6,b,a,False,1029,1,15071,trainPhase
9,6,B7,b,b,True,1214,1,15071,trainPhase
10,6,B1,b,b,True,1651,1,15071,trainPhase
11,6,B2,b,a,False,1122,1,15071,trainPhase
12,6,B4,b,b,True,1263,1,15071,trainPhase
13,6,A1,a,b,False,1422,1,15071,trainPhase
14,6,A3,a,a,True,921,1,15071,trainPhase
15,6,A6,a,b,False,2076,1,15071,trainPhase
0,7,B0,b,a,False,1257,1,15071,trainPhase
1,7,A7,a,a,True,1115,1,15071,trainPhase
2,7,B4,b,b,True,1053,1,15071,trainPhase
3,7,B5,b,a,False,1046,1,15071,trainPhase
4,7,A0,a,a,True,1132,1,15071,trainPhase
5,7,A6,a,b,False,999,1,15071,trainPhase
6,7,B7,b,a,False,1318,1,15071,trainPhase
7,7,A3,a,a,True,891,1,15071,trainPhase
8,7,B3,b,b,True,1071,1,15071,trainPhase
9,7,B1,b,a,False,1135,1,15071,trainPhase
10,7,A1,a,a,True,890,1,15071,trainPhase
11,7,A4,a,a,True,1040,1,15071,trainPhase
12,7,B2,b,a,False,1069,1,15071,trainPhase
13,7,A5,a,a,True,798,1,15071,trainPhase
14,7,B6,b,b,True,1008,1,15071,trainPhase
15,7,A2,a,a,True,948,1,15071,trainPhase
0,8,A0,a,a,True,1948,1,15071,trainPhase
1,8,A2,a,a,True,1989,1,15071,trainPhase
2,8,A6,a,b,False,926,1,15071,trainPhase
3,8,A7,a,b,False,699,1,15071,trainPhase
4,8,B5,b,a,False,1227,1,15071,trainPhase
5,8,A3,a,a,True,2413,1,15071,trainPhase
6,8,A4,a,a,True,915,1,15071,trainPhase
7,8,A1,a,b,False,951,1,15071,trainPhase
8,8,B1,b,a,False,2358,1,15071,trainPhase
9,8,B7,b,a,False,909,1,15071,trainPhase
10,8,B3,b,a,False,1376,1,15071,trainPhase
11,8,A5,a,a,True,713,1,15071,trainPhase
12,8,B6,b,a,False,992,1,15071,trainPhase
13,8,B2,b,a,False,609,1,15071,trainPhase
14,8,B4,b,a,False,678,1,15071,trainPhase
15,8,B0,b,a,False,1464,1,15071,trainPhase
0,9,A5,a,a,True,986,1,15071,trainPhase
1,9,B5,b,a,False,1109,1,15071,trainPhase
2,9,B3,b,b,True,2294,1,15071,trainPhase
3,9,A2,a,a,True,1069,1,15071,trainPhase
4,9,A1,a,b,False,1176,1,15071,trainPhase
5,9,B4,b,b,True,1012,1,15071,trainPhase
6,9,A4,a,a,True,1281,1,15071,trainPhase
7,9,B7,b,b,True,1631,1,15071,trainPhase
8,9,A7,a,b,False,936,1,15071,trainPhase
9,9,A0,a,a,True,1007,1,15071,trainPhase
10,9,B0,b,a,False,1544,1,15071,trainPhase
11,9,B1,b,a,False,1641,1,15071,trainPhase
12,9,B6,b,a,False,840,1,15071,trainPhase
13,9,A6,a,b,False,1313,1,15071,trainPhase
14,9,A3,a,a,True,813,1,15071,trainPhase
15,9,B2,b,a,False,829,1,15071,trainPhase
0,10,B1,b,a,False,845,1,15071,trainPhase
1,10,B2,b,a,False,925,1,15071,trainPhase
2,10,A3,a,a,True,709,1,15071,trainPhase
3,10,A1,a,a,True,4990,1,15071,trainPhase
4,10,B0,b,a,False,2190,1,15071,trainPhase
5,10,A7,a,a,True,2152,1,15071,trainPhase
6,10,A0,a,a,True,2123,1,15071,trainPhase
7,10,B3,b,b,True,1219,1,15071,trainPhase
8,10,B7,b,b,True,2373,1,15071,trainPhase
9,10,A4,a,a,True,790,1,15071,trainPhase
10,10,B5,b,a,False,1137,1,15071,trainPhase
11,10,A5,a,a,True,1149,1,15071,trainPhase
12,10,A6,a,b,False,2712,1,15071,trainPhase
13,10,B6,b,b,True,2197,1,15071,trainPhase
14,10,A2,a,a,True,1045,1,15071,trainPhase
15,10,B4,b,b,True,2662,1,15071,trainPhase
0,11,B4,b,b,True,1531,1,15071,trainPhase
1,11,B0,b,a,False,3438,1,15071,trainPhase
2,11,A7,a,b,False,1227,1,15071,trainPhase
3,11,B5,b,a,False,1098,1,15071,trainPhase
4,11,A3,a,a,True,719,1,15071,trainPhase
5,11,A5,a,a,True,1176,1,15071,trainPhase
6,11,B6,b,b,True,4175,1,15071,trainPhase
7,11,B7,b,b,True,1329,1,15071,trainPhase
8,11,A4,a,a,True,1098,1,15071,trainPhase
9,11,B1,b,a,False,3216,1,15071,trainPhase
10,11,A6,a,a,True,3007,1,15071,trainPhase
11,11,A2,a,a,True,2231,1,15071,trainPhase
12,11,B2,b,a,False,1795,1,15071,trainPhase
13,11,A1,a,b,False,953,1,15071,trainPhase
14,11,B3,b,b,True,726,1,15071,trainPhase
15,11,A0,a,a,True,1366,1,15071,trainPhase
0,12,B1,b,a,False,1922,1,15071,trainPhase
1,12,A1,a,b,False,1980,1,15071,trainPhase
2,12,B4,b,b,True,1093,1,15071,trainPhase
3,12,A6,a,b,False,1125,1,15071,trainPhase
4,12,A3,a,a,True,1120,1,15071,trainPhase
5,12,A5,a,a,True,1031,1,15071,trainPhase
6,12,B0,b,a,False,2165,1,15071,trainPhase
7,12,B5,b,a,False,1431,1,15071,trainPhase
8,12,B3,b,a,False,926,1,15071,trainPhase
9,12,A7,a,b,False,1134,1,15071,trainPhase
10,12,B7,b,b,True,910,1,15071,trainPhase
11,12,A0,a,a,True,878,1,15071,trainPhase
12,12,A4,a,a,True,956,1,15071,trainPhase
13,12,A2,a,a,True,877,1,15071,trainPhase
14,12,B6,b,a,False,2481,1,15071,trainPhase
15,12,B2,b,a,False,797,1,15071,trainPhase
0,13,A4,a,b,False,1054,1,15071,trainPhase
1,13,A7,a,a,True,3304,1,15071,trainPhase
2,13,B5,b,a,False,1559,1,15071,trainPhase
3,13,B2,b,a,False,1461,1,15071,trainPhase
4,13,B4,b,b,True,2539,1,15071,trainPhase
5,13,A1,a,b,False,978,1,15071,trainPhase
6,13,B7,b,a,False,1289,1,15071,trainPhase
7,13,B3,b,a,False,950,1,15071,trainPhase
8,13,A5,a,a,True,801,1,15071,trainPhase
9,13,A0,a,a,True,6065,1,15071,trainPhase
10,13,A3,a,a,True,2235,1,15071,trainPhase
11,13,A2,a,a,True,1248,1,15071,trainPhase
12,13,B0,b,b,True,2903,1,15071,trainPhase
13,13,B1,b,a,False,1998,1,15071,trainPhase
14,13,B6,b,a,False,1085,1,15071,trainPhase
15,13,A6,a,a,True,1199,1,15071,trainPhase
0,14,A5,a,a,True,1320,1,15071,trainPhase
1,14,A7,a,b,False,1981,1,15071,trainPhase
2,14,B2,b,a,False,1151,1,15071,trainPhase
3,14,B1,b,a,False,745,1,15071,trainPhase
4,14,B6,b,a,False,827,1,15071,trainPhase
5,14,A0,a,a,True,864,1,15071,trainPhase
6,14,B7,b,b,True,1113,1,15071,trainPhase
7,14,B3,b,b,True,1145,1,15071,trainPhase
8,14,A2,a,a,True,828,1,15071,trainPhase
9,14,A1,a,b,False,1490,1,15071,trainPhase
10,14,A4,a,a,True,1017,1,15071,trainPhase
11,14,A3,a,a,True,1168,1,15071,trainPhase
12,14,A6,a,a,True,2789,1,15071,trainPhase
13,14,B5,b,a,False,1339,1,15071,trainPhase
14,14,B4,b,b,True,1796,1,15071,trainPhase
15,14,B0,b,a,False,1125,1,15071,trainPhase
0,0,B0,b,a,False,1884,1,14358,trainPhase
1,0,B3,b,b,True,1055,1,14358,trainPhase
2,0,A2,a,a,True,920,1,14358,trainPhase
3,0,B7,b,b,True,1505,1,14358,trainPhase
4,0,A6,a,b,False,1494,1,14358,trainPhase
5,0,B6,b,a,False,823,1,14358,trainPhase
6,0,B4,b,b,True,1495,1,14358,trainPhase
7,0,B2,b,a,False,939,1,14358,trainPhase
8,0,A3,a,b,False,1645,1,14358,trainPhase
9,0,A7,a,b,False,978,1,14358,trainPhase
10,0,A4,a,a,True,752,1,14358,trainPhase
11,0,A5,a,b,False,1063,1,14358,trainPhase
12,0,B5,b,a,False,1070,1,14358,trainPhase
13,0,B1,b,a,False,958,1,14358,trainPhase
14,0,A0,a,a,True,758,1,14358,trainPhase
15,0,A1,a,b,False,774,1,14358,trainPhase
0,1,A5,a,a,True,2252,1,14358,trainPhase
1,1,A2,a,b,False,2182,1,14358,trainPhase
2,1,B1,b,b,True,1239,1,14358,trainPhase
3,1,B0,b,a,False,1526,1,14358,trainPhase
4,1,A4,a,a,True,902,1,14358,trainPhase
5,1,B5,b,b,True,888,1,14358,trainPhase
6,1,A1,a,b,False,1554,1,14358,trainPhase
7,1,A3,a,a,True,676,1,14358,trainPhase
8,1,B6,b,a,False,829,1,14358,trainPhase
9,1,B4,b,b,True,935,1,14358,trainPhase
10,1,A0,a,a,True,1076,1,14358,trainPhase
11,1,B7,b,b,True,2021,1,14358,trainPhase
12,1,B3,b,a,False,1150,1,14358,trainPhase
13,1,B2,b,a,False,605,1,14358,trainPhase
14,1,A6,a,b,False,772,1,14358,trainPhase
15,1,A7,a,a,True,1112,1,14358,trainPhase
0,2,A6,a,a,True,1227,1,14358,trainPhase
1,2,B0,b,b,True,2052,1,14358,trainPhase
2,2,A1,a,b,False,1009,1,14358,trainPhase
3,2,B1,b,a,False,926,1,14358,trainPhase
4,2,B7,b,b,True,1107,1,14358,trainPhase
5,2,B2,b,a,False,930,1,14358,trainPhase
6,2,B6,b,a,False,651,1,14358,trainPhase
7,2,A0,a,a,True,775,1,14358,trainPhase
8,2,B5,b,b,True,1379,1,14358,trainPhase
9,2,A2,a,b,False,1098,1,14358,trainPhase
10,2,A4,a,a,True,1022,1,14358,trainPhase
11,2,B4,b,b,True,2146,1,14358,trainPhase
12,2,B3,b,a,False,2558,1,14358,trainPhase
13,2,A5,a,a,True,918,1,14358,trainPhase
14,2,A7,a,b,False,815,1,14358,trainPhase
15,2,A3,a,b,False,926,1,14358,trainPhase
0,3,A5,a,a,True,639,1,14358,trainPhase
1,3,A2,a,a,True,598,1,14358,trainPhase
2,3,A1,a,a,True,966,1,14358,trainPhase
3,3,B5,b,b,True,894,1,14358,trainPhase
4,3,B3,b,b,True,3134,1,14358,trainPhase
5,3,A6,a,a,True,906,1,14358,trainPhase
6,3,B1,b,b,True,1478,1,14358,trainPhase
7,3,B4,b,b,True,1692,1,14358,trainPhase
8,3,B0,b,a,False,869,1,14358,trainPhase
9,3,B7,b,a,False,870,1,14358,trainPhase
10,3,B2,b,b,True,1122,1,14358,trainPhase
11,3,B6,b,a,False,1168,1,14358,trainPhase
12,3,A3,a,b,False,845,1,14358,trainPhase
13,3,A4,a,a,True,673,1,14358,trainPhase
14,3,A0,a,a,True,1216,1,14358,trainPhase
15,3,A7,a,a,True,1350,1,14358,trainPhase
0,4,A4,a,b,False,910,1,14358,trainPhase
1,4,B7,b,b,True,1845,1,14358,trainPhase
2,4,B5,b,b,True,741,1,14358,trainPhase
3,4,B4,b,b,True,1005,1,14358,trainPhase
4,4,B3,b,a,False,767,1,14358,trainPhase
5,4,A0,a,b,False,550,1,14358,trainPhase
6,4,B1,b,a,False,653,1,14358,trainPhase
7,4,B2,b,a,False,534,1,14358,trainPhase
8,4,B0,b,a,False,895,1,14358,trainPhase
9,4,A5,a,b,False,960,1,14358,trainPhase
10,4,A2,a,a,True,861,1,14358,trainPhase
11,4,A7,a,b,False,1790,1,14358,trainPhase
12,4,B6,b,a,False,766,1,14358,trainPhase
13,4,A3,a,b,False,541,1,14358,trainPhase
14,4,A1,a,b,False,1528,1,14358,trainPhase
15,4,A6,a,a,True,857,1,14358,trainPhase
0,5,B0,b,a,False,701,1,14358,trainPhase
1,5,B2,b,a,False,550,1,14358,trainPhase
2,5,B4,b,b,True,430,1,14358,trainPhase
3,5,A5,a,a,True,869,1,14358,trainPhase
4,5,B1,b,b,True,1486,1,14358,trainPhase
5,5,A6,a,a,True,1303,1,14358,trainPhase
6,5,A3,a,b,False,2538,1,14358,trainPhase
7,5,A4,a,a,True,381,1,14358,trainPhase
8,5,A7,a,a,True,1094,1,14358,trainPhase
9,5,A2,a,b,False,1813,1,14358,trainPhase
10,5,B6,b,a,False,534,1,14358,trainPhase
11,5,B7,b,a,False,382,1,14358,trainPhase
12,5,A1,a,b,False,1316,1,14358,trainPhase
13,5,B5,b,a,False,760,1,14358,trainPhase
14,5,B3,b,b,True,772,1,14358,trainPhase
15,5,A0,a,a,True,1043,1,14358,trainPhase
0,6,B6,b,b,True,1562,1,14358,trainPhase
1,6,A7,a,a,True,1222,1,14358,trainPhase
2,6,A3,a,a,True,2390,1,14358,trainPhase
3,6,B2,b,a,False,1167,1,14358,trainPhase
4,6,A5,a,a,True,998,1,14358,trainPhase
5,6,A6,a,a,True,1078,1,14358,trainPhase
6,6,B4,b,b,True,1093,1,14358,trainPhase
7,6,A1,a,b,False,1726,1,14358,trainPhase
8,6,A0,a,a,True,623,1,14358,trainPhase
9,6,B5,b,a,False,840,1,14358,trainPhase
10,6,B1,b,a,False,655,1,14358,trainPhase
11,6,B3,b,b,True,1142,1,14358,trainPhase
12,6,B0,b,b,True,2719,1,14358,trainPhase
13,6,A2,a,a,True,1061,1,14358,trainPhase
14,6,A4,a,a,True,1150,1,14358,trainPhase
15,6,B7,b,b,True,1541,1,14358,trainPhase
0,7,A2,a,a,True,1140,1,14358,trainPhase
1,7,B4,b,b,True,1118,1,14358,trainPhase
2,7,A6,a,a,True,877,1,14358,trainPhase
3,7,A4,a,a,True,1248,1,14358,trainPhase
4,7,B0,b,b,True,973,1,14358,trainPhase
5,7,B1,b,a,False,1517,1,14358,trainPhase
6,7,A7,a,a,True,1031,1,14358,trainPhase
7,7,A5,a,a,True,1856,1,14358,trainPhase
8,7,B2,b,b,True,825,1,14358,trainPhase
9,7,B5,b,a,False,999,1,14358,trainPhase
10,7,B6,b,a,False,798,1,14358,trainPhase
11,7,B7,b,b,True,2582,1,14358,trainPhase
12,7,A1,a,a,True,645,1,14358,trainPhase
13,7,A3,a,b,False,1062,1,14358,trainPhase
14,7,B3,b,a,False,837,1,14358,trainPhase
15,7,A0,a,a,True,804,1,14358,trainPhase
0,8,A1,a,b,False,895,1,14358,trainPhase
1,8,B2,b,a,False,622,1,14358,trainPhase
2,8,B4,b,a,False,465,1,14358,trainPhase
3,8,B1,b,b,True,631,1,14358,trainPhase
4,8,A4,a,a,True,918,1,14358,trainPhase
5,8,A7,a,b,False,1085,1,14358,trainPhase
6,8,B5,b,a,False,951,1,14358,trainPhase
7,8,B3,b,a,False,494,1,14358,trainPhase
8,8,A6,a,b,False,638,1,14358,trainPhase
9,8,A3,a,a,True,6931,1,14358,trainPhase
10,8,A0,a,a,True,4716,1,14358,trainPhase
11,8,B0,b,b,True,5190,1,14358,trainPhase
12,8,A5,a,a,True,1174,1,14358,trainPhase
13,8,B6,b,a,False,2054,1,14358,trainPhase
14,8,A2,a,a,True,646,1,14358,trainPhase
15,8,B7,b,b,True,1600,1,14358,trainPhase
0,9,B2,b,a,False,1205,1,14358,trainPhase
1,9,A0,a,a,True,502,1,14358,trainPhase
2,9,A4,a,a,True,1846,1,14358,trainPhase
3,9,B4,b,b,True,566,1,14358,trainPhase
4,9,B3,b,a,False,1518,1,14358,trainPhase
5,9,B1,b,a,False,422,1,14358,trainPhase
6,9,B5,b,b,True,407,1,14358,trainPhase
7,9,B6,b,b,True,1935,1,14358,trainPhase
8,9,A5,a,a,True,662,1,14358,trainPhase
9,9,A2,a,a,True,1934,1,14358,trainPhase
10,9,B7,b,b,True,939,1,14358,trainPhase
11,9,A6,a,a,True,701,1,14358,trainPhase
12,9,A1,a,b,False,1981,1,14358,trainPhase
13,9,A3,a,b,False,1006,1,14358,trainPhase
14,9,B0,b,a,False,484,1,14358,trainPhase
15,9,A7,a,a,True,494,1,14358,trainPhase
0,10,B5,b,a,False,1069,1,14358,trainPhase
1,10,A6,a,a,True,901,1,14358,trainPhase
2,10,A1,a,a,True,987,1,14358,trainPhase
3,10,A5,a,a,True,1689,1,14358,trainPhase
4,10,B2,b,b,True,1634,1,14358,trainPhase
5,10,B4,b,b,True,1886,1,14358,trainPhase
6,10,B6,b,a,False,3861,1,14358,trainPhase
7,10,B7,b,a,False,1062,1,14358,trainPhase
8,10,A7,a,b,False,1222,1,14358,trainPhase
9,10,A0,a,a,True,685,1,14358,trainPhase
10,10,B3,b,a,False,949,1,14358,trainPhase
11,10,B1,b,a,False,798,1,14358,trainPhase
12,10,A4,a,b,False,481,1,14358,trainPhase
13,10,A2,a,a,True,422,1,14358,trainPhase
14,10,B0,b,b,True,2847,1,14358,trainPhase
15,10,A3,a,a,True,1637,1,14358,trainPhase
0,11,A0,a,a,True,1461,1,14358,trainPhase
1,11,B1,b,b,True,1432,1,14358,trainPhase
2,11,A6,a,a,True,1118,1,14358,trainPhase
3,11,B6,b,a,False,1230,1,14358,trainPhase
4,11,B4,b,b,True,1390,1,14358,trainPhase
5,11,A2,a,a,True,774,1,14358,trainPhase
6,11,B2,b,a,False,1134,1,14358,trainPhase
7,11,A3,a,a,True,1062,1,14358,trainPhase
8,11,B5,b,b,True,945,1,14358,trainPhase
9,11,A7,a,a,True,1408,1,14358,trainPhase
10,11,A5,a,b,False,1302,1,14358,trainPhase
11,11,A1,a,a,True,734,1,14358,trainPhase
12,11,A4,a,a,True,2615,1,14358,trainPhase
13,11,B7,b,b,True,1423,1,14358,trainPhase
14,11,B3,b,a,False,1233,1,14358,trainPhase
15,11,B0,b,a,False,958,1,14358,trainPhase
0,12,A3,a,a,True,749,1,14358,trainPhase
1,12,A2,a,a,True,1035,1,14358,trainPhase
2,12,B4,b,b,True,744,1,14358,trainPhase
3,12,A7,a,b,False,1185,1,14358,trainPhase
4,12,A1,a,a,True,747,1,14358,trainPhase
5,12,B2,b,b,True,2806,1,14358,trainPhase
6,12,B5,b,a,False,814,1,14358,trainPhase
7,12,B1,b,a,False,707,1,14358,trainPhase
8,12,A0,a,b,False,458,1,14358,trainPhase
9,12,B6,b,b,True,958,1,14358,trainPhase
10,12,B0,b,a,False,701,1,14358,trainPhase
11,12,A4,a,b,False,630,1,14358,trainPhase
12,12,B3,b,a,False,1414,1,14358,trainPhase
13,12,B7,b,a,False,1056,1,14358,trainPhase
14,12,A6,a,a,True,1184,1,14358,trainPhase
15,12,A5,a,a,True,1461,1,14358,trainPhase
0,13,A5,a,b,False,1813,1,14358,trainPhase
1,13,B5,b,a,False,598,1,14358,trainPhase
2,13,B6,b,b,True,899,1,14358,trainPhase
3,13,A3,a,a,True,885,1,14358,trainPhase
4,13,B1,b,a,False,2567,1,14358,trainPhase
5,13,A4,a,a,True,982,1,14358,trainPhase
6,13,B2,b,b,True,1109,1,14358,trainPhase
7,13,A0,a,a,True,1135,1,14358,trainPhase
8,13,B0,b,a,False,1553,1,14358,trainPhase
9,13,B4,b,a,False,838,1,14358,trainPhase
10,13,A6,a,b,False,773,1,14358,trainPhase
11,13,A1,a,a,True,670,1,14358,trainPhase
12,13,A7,a,b,False,1310,1,14358,trainPhase
13,13,B3,b,a,False,526,1,14358,trainPhase
14,13,A2,a,a,True,1261,1,14358,trainPhase
15,13,B7,b,b,True,1650,1,14358,trainPhase
0,14,A1,a,a,True,1416,1,14358,trainPhase
1,14,A2,a,a,True,1867,1,14358,trainPhase
2,14,B4,b,b,True,1829,1,14358,trainPhase
3,14,A6,a,a,True,1702,1,14358,trainPhase
4,14,B2,b,b,True,1542,1,14358,trainPhase
5,14,B0,b,a,False,2657,1,14358,trainPhase
6,14,A4,a,b,False,1433,1,14358,trainPhase
7,14,A5,a,a,True,526,1,14358,trainPhase
8,14,A3,a,a,True,1486,1,14358,trainPhase
9,14,B3,b,b,True,1478,1,14358,trainPhase
10,14,A7,a,a,True,1415,1,14358,trainPhase
11,14,A0,a,a,True,19847,1,14358,trainPhase
12,14,B5,b,b,True,1056,1,14358,trainPhase
13,14,B7,b,b,True,4197,1,14358,trainPhase
14,14,B6,b,a,False,1100,1,14358,trainPhase
15,14,B1,b,a,False,1390,1,14358,trainPhase
0,0,B5,b,a,False,2556,1,15086,trainPhase
1,0,A6,a,b,False,3069,1,15086,trainPhase
2,0,A2,a,a,True,2310,1,15086,trainPhase
3,0,B3,b,b,True,1611,1,15086,trainPhase
4,0,A1,a,b,False,2294,1,15086,trainPhase
5,0,A3,a,b,False,1527,1,15086,trainPhase
6,0,B1,b,a,False,1650,1,15086,trainPhase
7,0,A7,a,b,False,2099,1,15086,trainPhase
8,0,B6,b,a,False,1903,1,15086,trainPhase
9,0,A4,a,b,False,2337,1,15086,trainPhase
10,0,B0,b,a,False,4211,1,15086,trainPhase
11,0,B4,b,a,False,1372,1,15086,trainPhase
12,0,B2,b,a,False,2251,1,15086,trainPhase
13,0,B7,b,a,False,2431,1,15086,trainPhase
14,0,A5,a,a,True,1695,1,15086,trainPhase
15,0,A0,a,a,True,3575,1,15086,trainPhase
0,1,A5,a,b,False,3301,1,15086,trainPhase
1,1,A1,a,a,True,5718,1,15086,trainPhase
2,1,B0,b,b,True,5513,1,15086,trainPhase
3,1,A6,a,a,True,2787,1,15086,trainPhase
4,1,B6,b,b,True,2096,1,15086,trainPhase
5,1,B1,b,a,False,1846,1,15086,trainPhase
6,1,A2,a,b,False,1534,1,15086,trainPhase
7,1,B3,b,a,False,1700,1,15086,trainPhase
8,1,A3,a,a,True,4247,1,15086,trainPhase
9,1,B5,b,a,False,2272,1,15086,trainPhase
10,1,A4,a,a,True,3489,1,15086,trainPhase
11,1,B2,b,a,False,2886,1,15086,trainPhase
12,1,B7,b,a,False,4340,1,15086,trainPhase
13,1,A7,a,a,True,2065,1,15086,trainPhase
14,1,B4,b,b,True,1378,1,15086,trainPhase
15,1,A0,a,b,False,2917,1,15086,trainPhase
0,2,B7,b,a,False,3867,1,15086,trainPhase
1,2,B0,b,a,False,3671,1,15086,trainPhase
2,2,B1,b,a,False,2557,1,15086,trainPhase
3,2,B2,b,a,False,1502,1,15086,trainPhase
4,2,A7,a,a,True,6631,1,15086,trainPhase
5,2,A4,a,b,False,925,1,15086,trainPhase
6,2,B5,b,b,True,4477,1,15086,trainPhase
7,2,A6,a,b,False,2323,1,15086,trainPhase
8,2,B6,b,a,False,2150,1,15086,trainPhase
9,2,B4,b,a,False,2182,1,15086,trainPhase
10,2,B3,b,b,True,3467,1,15086,trainPhase
11,2,A3,a,a,True,4885,1,15086,trainPhase
12,2,A2,a,b,False,1782,1,15086,trainPhase
13,2,A5,a,a,True,2710,1,15086,trainPhase
14,2,A1,a,a,True,1878,1,15086,trainPhase
15,2,A0,a,b,False,3869,1,15086,trainPhase
0,3,A2,a,a,True,4742,1,15086,trainPhase
1,3,A6,a,a,True,8239,1,15086,trainPhase
2,3,B6,b,a,False,1895,1,15086,trainPhase
3,3,B1,b,a,False,3059,1,15086,trainPhase
4,3,A5,a,a,True,3733,1,15086,trainPhase
5,3,B3,b,a,False,1469,1,15086,trainPhase
6,3,B4,b,a,False,1462,1,15086,trainPhase
7,3,B0,b,b,True,1572,1,15086,trainPhase
8,3,A7,a,a,True,1797,1,15086,trainPhase
9,3,B5,b,b,True,4301,1,15086,trainPhase
10,3,A3,a,b,False,4709,1,15086,trainPhase
11,3,B2,b,b,True,1320,1,15086,trainPhase
12,3,A4,a,b,False,1395,1,15086,trainPhase
13,3,A1,a,a,True,4086,1,15086,trainPhase
14,3,B7,b,a,False,885,1,15086,trainPhase
15,3,A0,a,a,True,1500,1,15086,trainPhase
0,4,A1,a,b,False,957,1,15086,trainPhase
1,4,B7,b,a,False,1421,1,15086,trainPhase
2,4,B5,b,b,True,2189,1,15086,trainPhase
3,4,B3,b,b,True,4066,1,15086,trainPhase
4,4,B4,b,b,True,4086,1,15086,trainPhase
5,4,A3,a,a,True,1560,1,15086,trainPhase
6,4,A0,a,b,False,1923,1,15086,trainPhase
7,4,B2,b,a,False,3870,1,15086,trainPhase
8,4,A5,a,b,False,3908,1,15086,trainPhase
9,4,B1,b,a,False,5086,1,15086,trainPhase
10,4,A7,a,b,False,3637,1,15086,trainPhase
11,4,B6,b,b,True,4328,1,15086,trainPhase
12,4,A6,a,a,True,3062,1,15086,trainPhase
13,4,A4,a,b,False,2702,1,15086,trainPhase
14,4,B0,b,a,False,2025,1,15086,trainPhase
15,4,A2,a,b,False,1069,1,15086,trainPhase
0,5,A1,a,a,True,462,1,15086,trainPhase
1,5,B0,b,a,False,356,1,15086,trainPhase
2,5,A3,a,b,False,3253,1,15086,trainPhase
3,5,A4,a,a,True,2694,1,15086,trainPhase
4,5,B1,b,a,False,2023,1,15086,trainPhase
5,5,A6,a,b,False,4781,1,15086,trainPhase
6,5,B5,b,a,False,1988,1,15086,trainPhase
7,5,B7,b,b,True,763,1,15086,trainPhase
8,5,B3,b,b,True,2229,1,15086,trainPhase
9,5,A7,a,b,False,1718,1,15086,trainPhase
10,5,B4,b,a,False,1637,1,15086,trainPhase
11,5,B2,b,a,False,2055,1,15086,trainPhase
12,5,A5,a,b,False,3756,1,15086,trainPhase
13,5,A2,a,a,True,1941,1,15086,trainPhase
14,5,A0,a,b,False,2782,1,15086,trainPhase
15,5,B6,b,a,False,888,1,15086,trainPhase
0,6,B0,b,b,True,1118,1,15086,trainPhase
1,6,B7,b,a,False,1627,1,15086,trainPhase
2,6,A6,a,b,False,1691,1,15086,trainPhase
3,6,A3,a,a,True,530,1,15086,trainPhase
4,6,A0,a,b,False,1261,1,15086,trainPhase
5,6,A7,a,a,True,398,1,15086,trainPhase
6,6,B6,b,b,True,1234,1,15086,trainPhase
7,6,A4,a,b,False,2485,1,15086,trainPhase
8,6,B5,b,a,False,597,1,15086,trainPhase
9,6,A2,a,a,True,526,1,15086,trainPhase
10,6,A5,a,b,False,3051,1,15086,trainPhase
11,6,B3,b,a,False,1141,1,15086,trainPhase
12,6,B2,b,a,False,686,1,15086,trainPhase
13,6,B1,b,b,True,303,1,15086,trainPhase
14,6,B4,b,b,True,3364,1,15086,trainPhase
15,6,A1,a,b,False,1709,1,15086,trainPhase
0,7,A0,a,a,True,1991,1,15086,trainPhase
1,7,B4,b,a,False,3060,1,15086,trainPhase
2,7,A2,a,a,True,2430,1,15086,trainPhase
3,7,B6,b,b,True,1116,1,15086,trainPhase
4,7,B1,b,b,True,1606,1,15086,trainPhase
5,7,A4,a,b,False,4309,1,15086,trainPhase
6,7,B5,b,b,True,2907,1,15086,trainPhase
7,7,B3,b,b,True,1461,1,15086,trainPhase
8,7,B7,b,a,False,1806,1,15086,trainPhase
9,7,A7,a,b,False,2549,1,15086,trainPhase
10,7,A6,a,a,True,541,1,15086,trainPhase
11,7,B2,b,a,False,373,1,15086,trainPhase
12,7,A5,a,b,False,326,1,15086,trainPhase
13,7,A1,a,a,True,125,1,15086,trainPhase
14,7,B0,b,a,False,2166,1,15086,trainPhase
15,7,A3,a,b,False,3611,1,15086,trainPhase
0,8,B2,b,a,False,997,1,15086,trainPhase
1,8,B0,b,a,False,782,1,15086,trainPhase
2,8,B1,b,b,True,1004,1,15086,trainPhase
3,8,B4,b,a,False,3868,1,15086,trainPhase
4,8,A4,a,a,True,1202,1,15086,trainPhase
5,8,B3,b,a,False,750,1,15086,trainPhase
6,8,A1,a,b,False,614,1,15086,trainPhase
7,8,A7,a,b,False,270,1,15086,trainPhase
8,8,A5,a,a,True,2982,1,15086,trainPhase
9,8,A6,a,a,True,1102,1,15086,trainPhase
10,8,B6,b,b,True,1134,1,15086,trainPhase
11,8,B5,b,b,True,806,1,15086,trainPhase
12,8,B7,b,a,False,1742,1,15086,trainPhase
13,8,A2,a,b,False,4269,1,15086,trainPhase
14,8,A0,a,a,True,1741,1,15086,trainPhase
15,8,A3,a,a,True,2328,1,15086,trainPhase
0,9,B7,b,a,False,5492,1,15086,trainPhase
1,9,A5,a,a,True,1367,1,15086,trainPhase
2,9,A2,a,b,False,815,1,15086,trainPhase
3,9,A1,a,a,True,405,1,15086,trainPhase
4,9,A0,a,a,True,374,1,15086,trainPhase
5,9,B6,b,a,False,326,1,15086,trainPhase
6,9,B4,b,b,True,438,1,15086,trainPhase
7,9,A4,a,a,True,4829,1,15086,trainPhase
8,9,B2,b,b,True,1246,1,15086,trainPhase
9,9,B3,b,b,True,3359,1,15086,trainPhase
10,9,B5,b,b,True,2957,1,15086,trainPhase
11,9,A7,a,a,True,2365,1,15086,trainPhase
12,9,B0,b,a,False,2499,1,15086,trainPhase
13,9,B1,b,b,True,1833,1,15086,trainPhase
14,9,A6,a,a,True,3033,1,15086,trainPhase
15,9,A3,a,b,False,3049,1,15086,trainPhase
0,10,A3,a,a,True,1887,1,15086,trainPhase
1,10,B1,b,a,False,7399,1,15086,trainPhase
2,10,A6,a,a,True,786,1,15086,trainPhase
3,10,A7,a,b,False,2359,1,15086,trainPhase
4,10,B5,b,a,False,693,1,15086,trainPhase
5,10,B2,b,b,True,622,1,15086,trainPhase
6,10,B3,b,a,False,613,1,15086,trainPhase
7,10,B4,b,b,True,333,1,15086,trainPhase
8,10,A5,a,b,False,1088,1,15086,trainPhase
9,10,A1,a,a,True,756,1,15086,trainPhase
10,10,B6,b,a,False,454,1,15086,trainPhase
11,10,A0,a,b,False,398,1,15086,trainPhase
12,10,B7,b,a,False,2139,1,15086,trainPhase
13,10,B0,b,b,True,1414,1,15086,trainPhase
14,10,A2,a,b,False,1056,1,15086,trainPhase
15,10,A4,a,a,True,1118,1,15086,trainPhase
0,11,A7,a,a,True,582,1,15086,trainPhase
1,11,A4,a,a,True,358,1,15086,trainPhase
2,11,B6,b,a,False,462,1,15086,trainPhase
3,11,B2,b,b,True,818,1,15086,trainPhase
4,11,B1,b,b,True,430,1,15086,trainPhase
5,11,A5,a,a,True,1070,1,15086,trainPhase
6,11,A3,a,a,True,718,1,15086,trainPhase
7,11,A6,a,b,False,1382,1,15086,trainPhase
8,11,B0,b,b,True,445,1,15086,trainPhase
9,11,A1,a,b,False,2924,1,15086,trainPhase
10,11,B4,b,a,False,1174,1,15086,trainPhase
11,11,B3,b,a,False,558,1,15086,trainPhase
12,11,A0,a,b,False,365,1,15086,trainPhase
13,11,A2,a,a,True,2065,1,15086,trainPhase
14,11,B7,b,b,True,1118,1,15086,trainPhase
15,11,B5,b,a,False,900,1,15086,trainPhase
0,12,A3,a,a,True,540,1,15086,trainPhase
1,12,B3,b,b,True,694,1,15086,trainPhase
2,12,B5,b,b,True,669,1,15086,trainPhase
3,12,A7,a,b,False,573,1,15086,trainPhase
4,12,A4,a,a,True,651,1,15086,trainPhase
5,12,B7,b,a,False,1126,1,15086,trainPhase
6,12,A1,a,b,False,635,1,15086,trainPhase
7,12,B1,b,a,False,366,1,15086,trainPhase
8,12,B0,b,a,False,878,1,15086,trainPhase
9,12,B2,b,b,True,1513,1,15086,trainPhase
10,12,A5,a,b,False,2293,1,15086,trainPhase
11,12,B6,b,a,False,1926,1,15086,trainPhase
12,12,A2,a,a,True,389,1,15086,trainPhase
13,12,A0,a,b,False,806,1,15086,trainPhase
14,12,B4,b,a,False,2046,1,15086,trainPhase
15,12,A6,a,b,False,652,1,15086,trainPhase
0,13,A4,a,a,True,704,1,15086,trainPhase
1,13,A5,a,b,False,1398,1,15086,trainPhase
2,13,A2,a,a,True,349,1,15086,trainPhase
3,13,B7,b,b,True,630,1,15086,trainPhase
4,13,B4,b,a,False,782,1,15086,trainPhase
5,13,B0,b,b,True,196,1,15086,trainPhase
6,13,A6,a,a,True,133,1,15086,trainPhase
7,13,A7,a,b,False,245,1,15086,trainPhase
8,13,B5,b,a,False,1366,1,15086,trainPhase
9,13,A1,a,b,False,1389,1,15086,trainPhase
10,13,B3,b,a,False,509,1,15086,trainPhase
11,13,B1,b,b,True,870,1,15086,trainPhase
12,13,A3,a,a,True,933,1,15086,trainPhase
13,13,A0,a,b,False,702,1,15086,trainPhase
14,13,B2,b,a,False,358,1,15086,trainPhase
15,13,B6,b,b,True,174,1,15086,trainPhase
0,14,B2,b,b,True,2547,1,15086,trainPhase
1,14,A7,a,b,False,1394,1,15086,trainPhase
2,14,B3,b,a,False,5413,1,15086,trainPhase
3,14,B5,b,a,False,1533,1,15086,trainPhase
4,14,A4,a,b,False,1574,1,15086,trainPhase
5,14,B0,b,a,False,294,1,15086,trainPhase
6,14,A5,a,a,True,189,1,15086,trainPhase
7,14,B1,b,b,True,509,1,15086,trainPhase
8,14,A1,a,a,True,255,1,15086,trainPhase
9,14,A3,a,b,False,183,1,15086,trainPhase
10,14,B4,b,a,False,244,1,15086,trainPhase
11,14,A0,a,a,True,3693,1,15086,trainPhase
12,14,B6,b,b,True,1878,1,15086,trainPhase
13,14,A6,a,b,False,979,1,15086,trainPhase
14,14,A2,a,a,True,2035,1,15086,trainPhase
15,14,B7,b,b,True,1166,1,15086,trainPhase
0,0,B6,b,b,True,3841,1,15091,trainPhase
1,0,A5,a,b,False,2806,1,15091,trainPhase
2,0,A2,a,b,False,11091,1,15091,trainPhase
3,0,B0,b,b,True,7084,1,15091,trainPhase
4,0,A3,a,b,False,3016,1,15091,trainPhase
5,0,A7,a,b,False,3911,1,15091,trainPhase
6,0,B1,b,a,False,23678,1,15091,trainPhase
7,0,A1,a,a,True,1948,1,15091,trainPhase
8,0,A4,a,b,False,2098,1,15091,trainPhase
9,0,A6,a,b,False,1103,1,15091,trainPhase
10,0,B2,b,a,False,2804,1,15091,trainPhase
11,0,B3,b,a,False,8080,1,15091,trainPhase
12,0,B7,b,b,True,9947,1,15091,trainPhase
13,0,B5,b,a,False,2428,1,15091,trainPhase
14,0,B4,b,a,False,2224,1,15091,trainPhase
15,0,A0,a,a,True,1095,1,15091,trainPhase
0,1,B7,b,b,True,1880,1,15091,trainPhase
1,1,B1,b,a,False,1347,1,15091,trainPhase
2,1,A3,a,b,False,2451,1,15091,trainPhase
3,1,A4,a,a,True,3432,1,15091,trainPhase
4,1,B5,b,b,True,14290,1,15091,trainPhase
5,1,B6,b,b,True,3297,1,15091,trainPhase
6,1,B4,b,b,True,3538,1,15091,trainPhase
7,1,A7,a,b,False,1610,1,15091,trainPhase
8,1,B3,b,a,False,2120,1,15091,trainPhase
9,1,B0,b,a,False,1172,1,15091,trainPhase
10,1,A6,a,b,False,17496,1,15091,trainPhase
11,1,A2,a,a,True,1631,1,15091,trainPhase
12,1,A1,a,b,False,1256,1,15091,trainPhase
13,1,B2,b,b,True,6465,1,15091,trainPhase
14,1,A0,a,a,True,1149,1,15091,trainPhase
15,1,A5,a,b,False,2400,1,15091,trainPhase
0,2,A7,a,a,True,1835,1,15091,trainPhase
1,2,A0,a,a,True,1313,1,15091,trainPhase
2,2,A2,a,a,True,880,1,15091,trainPhase
3,2,B4,b,b,True,2294,1,15091,trainPhase
4,2,A4,a,b,False,1379,1,15091,trainPhase
5,2,A3,a,b,False,4539,1,15091,trainPhase
6,2,A5,a,b,False,4375,1,15091,trainPhase
7,2,B7,b,b,True,3588,1,15091,trainPhase
8,2,A1,a,b,False,940,1,15091,trainPhase
9,2,B3,b,a,False,1391,1,15091,trainPhase
10,2,B5,b,b,True,1592,1,15091,trainPhase
11,2,A6,a,b,False,1888,1,15091,trainPhase
12,2,B1,b,a,False,1118,1,15091,trainPhase
13,2,B6,b,b,True,8587,1,15091,trainPhase
14,2,B0,b,a,False,2646,1,15091,trainPhase
15,2,B2,b,a,False,2569,1,15091,trainPhase
0,3,B2,b,b,True,2554,1,15091,trainPhase
1,3,B0,b,b,True,2469,1,15091,trainPhase
2,3,B6,b,b,True,821,1,15091,trainPhase
3,3,A2,a,a,True,1398,1,15091,trainPhase
4,3,A1,a,b,False,2959,1,15091,trainPhase
5,3,B7,b,b,True,889,1,15091,trainPhase
6,3,A5,a,a,True,2017,1,15091,trainPhase
7,3,A7,a,a,True,1352,1,15091,trainPhase
8,3,B5,b,a,False,1561,1,15091,trainPhase
9,3,A4,a,a,True,944,1,15091,trainPhase
10,3,B4,b,b,True,1323,1,15091,trainPhase
11,3,B3,b,b,True,854,1,15091,trainPhase
12,3,A0,a,a,True,1465,1,15091,trainPhase
13,3,B1,b,b,True,1199,1,15091,trainPhase
14,3,A6,a,a,True,1408,1,15091,trainPhase
15,3,A3,a,b,False,1536,1,15091,trainPhase
0,4,B0,b,a,False,997,1,15091,trainPhase
1,4,B4,b,b,True,1175,1,15091,trainPhase
2,4,A2,a,a,True,1034,1,15091,trainPhase
3,4,A0,a,a,True,1208,1,15091,trainPhase
4,4,B1,b,b,True,1278,1,15091,trainPhase
5,4,A3,a,a,True,1304,1,15091,trainPhase
6,4,A7,a,a,True,1084,1,15091,trainPhase
7,4,A6,a,b,False,2060,1,15091,trainPhase
8,4,B5,b,a,False,3130,1,15091,trainPhase
9,4,A4,a,a,True,1562,1,15091,trainPhase
10,4,A5,a,a,True,910,1,15091,trainPhase
11,4,B2,b,b,True,2097,1,15091,trainPhase
12,4,B7,b,b,True,741,1,15091,trainPhase
13,4,A1,a,b,False,1012,1,15091,trainPhase
14,4,B3,b,a,False,2144,1,15091,trainPhase
15,4,B6,b,b,True,1282,1,15091,trainPhase
0,5,B5,b,b,True,679,1,15091,trainPhase
1,5,A2,a,a,True,923,1,15091,trainPhase
2,5,B3,b,b,True,3974,1,15091,trainPhase
3,5,A6,a,a,True,1288,1,15091,trainPhase
4,5,B0,b,a,False,749,1,15091,trainPhase
5,5,A7,a,a,True,1015,1,15091,trainPhase
6,5,B6,b,b,True,2046,1,15091,trainPhase
7,5,A5,a,b,False,826,1,15091,trainPhase
8,5,A3,a,b,False,5286,1,15091,trainPhase
9,5,B2,b,b,True,1529,1,15091,trainPhase
10,5,B4,b,b,True,1845,1,15091,trainPhase
11,5,A1,a,b,False,930,1,15091,trainPhase
12,5,A4,a,a,True,736,1,15091,trainPhase
13,5,B7,b,b,True,1399,1,15091,trainPhase
14,5,B1,b,a,False,1540,1,15091,trainPhase
15,5,A0,a,a,True,690,1,15091,trainPhase
0,6,A0,a,a,True,889,1,15091,trainPhase
1,6,B3,b,b,True,776,1,15091,trainPhase
2,6,A2,a,a,True,1538,1,15091,trainPhase
3,6,B7,b,b,True,796,1,15091,trainPhase
4,6,A3,a,b,False,1814,1,15091,trainPhase
5,6,A7,a,b,False,1300,1,15091,trainPhase
6,6,B2,b,a,False,1019,1,15091,trainPhase
7,6,B1,b,b,True,1295,1,15091,trainPhase
8,6,B5,b,b,True,3679,1,15091,trainPhase
9,6,B4,b,b,True,1676,1,15091,trainPhase
10,6,B6,b,b,True,1090,1,15091,trainPhase
11,6,B0,b,a,False,1004,1,15091,trainPhase
12,6,A4,a,a,True,722,1,15091,trainPhase
13,6,A1,a,b,False,873,1,15091,trainPhase
14,6,A5,a,b,False,1137,1,15091,trainPhase
15,6,A6,a,a,True,3215,1,15091,trainPhase
0,7,A7,a,a,True,984,1,15091,trainPhase
1,7,A3,a,b,False,1515,1,15091,trainPhase
2,7,A4,a,a,True,934,1,15091,trainPhase
3,7,B7,b,b,True,687,1,15091,trainPhase
4,7,A2,a,a,True,811,1,15091,trainPhase
5,7,B4,b,b,True,740,1,15091,trainPhase
6,7,B5,b,b,True,2036,1,15091,trainPhase
7,7,B6,b,b,True,842,1,15091,trainPhase
8,7,A1,a,a,True,1142,1,15091,trainPhase
9,7,B0,b,a,False,967,1,15091,trainPhase
10,7,A0,a,a,True,1466,1,15091,trainPhase
11,7,B1,b,b,True,1638,1,15091,trainPhase
12,7,B3,b,b,True,1264,1,15091,trainPhase
13,7,A5,a,a,True,821,1,15091,trainPhase
14,7,A6,a,b,False,900,1,15091,trainPhase
15,7,B2,b,b,True,1140,1,15091,trainPhase
0,8,A4,a,a,True,1037,1,15091,trainPhase
1,8,B1,b,b,True,3523,1,15091,trainPhase
2,8,A6,a,a,True,1284,1,15091,trainPhase
3,8,B5,b,b,True,5523,1,15091,trainPhase
4,8,B4,b,a,False,1753,1,15091,trainPhase
5,8,A5,a,a,True,1070,1,15091,trainPhase
6,8,B7,b,b,True,1567,1,15091,trainPhase
7,8,A0,a,a,True,1401,1,15091,trainPhase
8,8,B2,b,b,True,1386,1,15091,trainPhase
9,8,A1,a,b,False,985,1,15091,trainPhase
10,8,A2,a,a,True,1144,1,15091,trainPhase
11,8,B6,b,a,False,2292,1,15091,trainPhase
12,8,A7,a,a,True,1416,1,15091,trainPhase
13,8,B0,b,b,True,1592,1,15091,trainPhase
14,8,A3,a,b,False,1623,1,15091,trainPhase
15,8,B3,b,b,True,1265,1,15091,trainPhase
0,9,A3,a,b,False,1762,1,15091,trainPhase
1,9,A6,a,b,False,1013,1,15091,trainPhase
2,9,A2,a,a,True,804,1,15091,trainPhase
3,9,A5,a,a,True,8176,1,15091,trainPhase
4,9,A0,a,a,True,843,1,15091,trainPhase
5,9,A1,a,b,False,3061,1,15091,trainPhase
6,9,B0,b,b,True,1303,1,15091,trainPhase
7,9,B5,b,a,False,2234,1,15091,trainPhase
8,9,A4,a,a,True,781,1,15091,trainPhase
9,9,A7,a,a,True,1202,1,15091,trainPhase
10,9,B4,b,b,True,1607,1,15091,trainPhase
11,9,B6,b,a,False,1379,1,15091,trainPhase
12,9,B2,b,b,True,1251,1,15091,trainPhase
13,9,B7,b,b,True,1328,1,15091,trainPhase
14,9,B1,b,b,True,1884,1,15091,trainPhase
15,9,B3,b,b,True,3360,1,15091,trainPhase
0,10,B0,b,a,False,1886,1,15091,trainPhase
1,10,B5,b,b,True,4559,1,15091,trainPhase
2,10,B2,b,a,False,1746,1,15091,trainPhase
3,10,B1,b,b,True,11610,1,15091,trainPhase
4,10,A4,a,b,False,975,1,15091,trainPhase
5,10,B7,b,a,False,1092,1,15091,trainPhase
6,10,A0,a,a,True,1010,1,15091,trainPhase
7,10,A3,a,b,False,3436,1,15091,trainPhase
8,10,A2,a,a,True,2334,1,15091,trainPhase
9,10,B4,b,b,True,1407,1,15091,trainPhase
10,10,A5,a,a,True,1292,1,15091,trainPhase
11,10,A7,a,a,True,1215,1,15091,trainPhase
12,10,A6,a,a,True,902,1,15091,trainPhase
13,10,B3,b,b,True,2207,1,15091,trainPhase
14,10,A1,a,a,True,946,1,15091,trainPhase
15,10,B6,b,b,True,1566,1,15091,trainPhase
0,11,A1,a,a,True,1418,1,15091,trainPhase
1,11,A0,a,a,True,869,1,15091,trainPhase
2,11,B5,b,b,True,1383,1,15091,trainPhase
3,11,A6,a,a,True,1206,1,15091,trainPhase
4,11,A2,a,a,True,916,1,15091,trainPhase
5,11,B1,b,b,True,988,1,15091,trainPhase
6,11,B0,b,b,True,1072,1,15091,trainPhase
7,11,A4,a,a,True,1132,1,15091,trainPhase
0,0,B1,b,b,True,2184,1,14359,trainPhase
1,0,A0,a,a,True,1271,1,14359,trainPhase
2,0,B3,b,b,True,1121,1,14359,trainPhase
3,0,B5,b,b,True,1013,1,14359,trainPhase
4,0,A6,a,b,False,1209,1,14359,trainPhase
5,0,B0,b,a,False,3037,1,14359,trainPhase
6,0,A2,a,a,True,1213,1,14359,trainPhase
7,0,B7,b,b,True,1715,1,14359,trainPhase
8,0,A7,a,a,True,1576,1,14359,trainPhase
9,0,B2,b,a,False,1298,1,14359,trainPhase
10,0,B6,b,b,True,4359,1,14359,trainPhase
11,0,B4,b,a,False,1093,1,14359,trainPhase
12,0,A4,a,a,True,952,1,14359,trainPhase
13,0,A3,a,b,False,1148,1,14359,trainPhase
14,0,A1,a,b,False,1808,1,14359,trainPhase
15,0,A5,a,a,True,4097,1,14359,trainPhase
0,1,B0,b,a,False,1896,1,14359,trainPhase
1,1,A5,a,a,True,1417,1,14359,trainPhase
2,1,A0,a,b,False,1413,1,14359,trainPhase
3,1,B6,b,a,False,5995,1,14359,trainPhase
4,1,A4,a,a,True,1004,1,14359,trainPhase
5,1,B1,b,a,False,1370,1,14359,trainPhase
6,1,A1,a,b,False,1184,1,14359,trainPhase
7,1,A6,a,b,False,8339,1,14359,trainPhase
8,1,B7,b,a,False,1819,1,14359,trainPhase
9,1,B2,b,a,False,1161,1,14359,trainPhase
10,1,A2,a,a,True,848,1,14359,trainPhase
11,1,A7,a,b,False,1096,1,14359,trainPhase
12,1,A3,a,b,False,1349,1,14359,trainPhase
13,1,B4,b,b,True,1439,1,14359,trainPhase
14,1,B5,b,a,False,1815,1,14359,trainPhase
15,1,B3,b,b,True,1100,1,14359,trainPhase
0,2,A0,a,a,True,944,1,14359,trainPhase
1,2,B7,b,b,True,1343,1,14359,trainPhase
2,2,A2,a,a,True,1038,1,14359,trainPhase
3,2,B2,b,a,False,2237,1,14359,trainPhase
4,2,A6,a,b,False,1877,1,14359,trainPhase
5,2,B3,b,b,True,3735,1,14359,trainPhase
6,2,B5,b,a,False,2163,1,14359,trainPhase
7,2,B4,b,b,True,1112,1,14359,trainPhase
8,2,A7,a,b,False,878,1,14359,trainPhase
9,2,B1,b,a,False,2091,1,14359,trainPhase
10,2,A1,a,b,False,1207,1,14359,trainPhase
11,2,B0,b,a,False,8784,1,14359,trainPhase
12,2,A4,a,a,True,1278,1,14359,trainPhase
13,2,A5,a,a,True,1311,1,14359,trainPhase
14,2,B6,b,b,True,1310,1,14359,trainPhase
15,2,A3,a,b,False,1076,1,14359,trainPhase
0,3,A4,a,a,True,1211,1,14359,trainPhase
1,3,A0,a,a,True,2233,1,14359,trainPhase
2,3,A5,a,a,True,1400,1,14359,trainPhase
3,3,B5,b,b,True,1116,1,14359,trainPhase
4,3,A2,a,a,True,981,1,14359,trainPhase
5,3,A7,a,b,False,1455,1,14359,trainPhase
6,3,B7,b,b,True,1824,1,14359,trainPhase
7,3,B1,b,a,False,1116,1,14359,trainPhase
8,3,B2,b,b,True,3840,1,14359,trainPhase
9,3,A3,a,a,True,3689,1,14359,trainPhase
10,3,B0,b,b,True,1358,1,14359,trainPhase
11,3,B6,b,b,True,4130,1,14359,trainPhase
12,3,B3,b,b,True,1408,1,14359,trainPhase
13,3,A6,a,b,False,2125,1,14359,trainPhase
14,3,B4,b,b,True,1895,1,14359,trainPhase
15,3,A1,a,b,False,1015,1,14359,trainPhase
0,4,B0,b,a,False,1014,1,14359,trainPhase
1,4,A2,a,a,True,773,1,14359,trainPhase
2,4,B2,b,a,False,1294,1,14359,trainPhase
3,4,B1,b,a,False,813,1,14359,trainPhase
4,4,A4,a,a,True,789,1,14359,trainPhase
5,4,A5,a,a,True,1627,1,14359,trainPhase
6,4,B7,b,b,True,832,1,14359,trainPhase
7,4,B6,b,a,False,957,1,14359,trainPhase
8,4,A6,a,b,False,1289,1,14359,trainPhase
9,4,A3,a,b,False,1822,1,14359,trainPhase
10,4,A7,a,b,False,1459,1,14359,trainPhase
11,4,A0,a,a,True,854,1,14359,trainPhase
12,4,B5,b,b,True,2821,1,14359,trainPhase
13,4,A1,a,a,True,1999,1,14359,trainPhase
14,4,B4,b,b,True,2211,1,14359,trainPhase
15,4,B3,b,a,False,1353,1,14359,trainPhase
0,5,B3,b,a,False,1512,1,14359,trainPhase
1,5,B1,b,a,False,1035,1,14359,trainPhase
2,5,B5,b,a,False,1194,1,14359,trainPhase
3,5,A3,a,a,True,894,1,14359,trainPhase
4,5,A1,a,b,False,1617,1,14359,trainPhase
5,5,A4,a,a,True,1087,1,14359,trainPhase
6,5,A5,a,a,True,1021,1,14359,trainPhase
7,5,A7,a,b,False,796,1,14359,trainPhase
8,5,B4,b,b,True,716,1,14359,trainPhase
9,5,B6,b,b,True,2746,1,14359,trainPhase
10,5,A0,a,a,True,984,1,14359,trainPhase
11,5,B0,b,a,False,1166,1,14359,trainPhase
12,5,B7,b,b,True,1102,1,14359,trainPhase
13,5,A6,a,a,True,1192,1,14359,trainPhase
14,5,A2,a,a,True,1221,1,14359,trainPhase
15,5,B2,b,b,True,1161,1,14359,trainPhase
0,6,A2,a,a,True,1245,1,14359,trainPhase
1,6,B3,b,b,True,2038,1,14359,trainPhase
2,6,A5,a,a,True,1847,1,14359,trainPhase
3,6,A0,a,a,True,1031,1,14359,trainPhase
4,6,B0,b,a,False,1309,1,14359,trainPhase
5,6,A1,a,a,True,1588,1,14359,trainPhase
6,6,B7,b,b,True,1300,1,14359,trainPhase
7,6,A6,a,a,True,1498,1,14359,trainPhase
8,6,B5,b,a,False,1886,1,14359,trainPhase
9,6,B2,b,a,False,886,1,14359,trainPhase
10,6,B4,b,b,True,1333,1,14359,trainPhase
11,6,B6,b,a,False,1850,1,14359,trainPhase
12,6,A4,a,a,True,1078,1,14359,trainPhase
13,6,A3,a,b,False,1601,1,14359,trainPhase
14,6,A7,a,a,True,1661,1,14359,trainPhase
15,6,B1,b,a,False,1182,1,14359,trainPhase
0,7,A1,a,b,False,1471,1,14359,trainPhase
1,7,A6,a,a,True,1357,1,14359,trainPhase
2,7,A0,a,a,True,1123,1,14359,trainPhase
3,7,B5,b,a,False,948,1,14359,trainPhase
4,7,A7,a,b,False,1037,1,14359,trainPhase
5,7,B3,b,a,False,8164,1,14359,trainPhase
6,7,B6,b,a,False,1862,1,14359,trainPhase
7,7,A4,a,a,True,1640,1,14359,trainPhase
8,7,B4,b,b,True,1205,1,14359,trainPhase
9,7,B2,b,a,False,1541,1,14359,trainPhase
10,7,A3,a,a,True,1863,1,14359,trainPhase
11,7,A2,a,a,True,971,1,14359,trainPhase
12,7,B1,b,a,False,1245,1,14359,trainPhase
13,7,A5,a,b,False,872,1,14359,trainPhase
14,7,B0,b,b,True,4109,1,14359,trainPhase
15,7,B7,b,a,False,816,1,14359,trainPhase
0,8,B7,b,a,False,2725,1,14359,trainPhase
1,8,B1,b,a,False,1461,1,14359,trainPhase
2,8,B4,b,b,True,696,1,14359,trainPhase
3,8,B3,b,b,True,1905,1,14359,trainPhase
4,8,B0,b,a,False,1390,1,14359,trainPhase
5,8,A6,a,b,False,2543,1,14359,trainPhase
6,8,A5,a,a,True,949,1,14359,trainPhase
7,8,A0,a,a,True,1068,1,14359,trainPhase
8,8,A7,a,b,False,1938,1,14359,trainPhase
9,8,B2,b,a,False,1070,1,14359,trainPhase
10,8,A4,a,a,True,1212,1,14359,trainPhase
11,8,A3,a,b,False,1473,1,14359,trainPhase
12,8,B5,b,a,False,777,1,14359,trainPhase
13,8,A1,a,b,False,1335,1,14359,trainPhase
14,8,A2,a,a,True,1244,1,14359,trainPhase
15,8,B6,b,a,False,1840,1,14359,trainPhase
0,9,A5,a,b,False,1312,1,14359,trainPhase
1,9,B0,b,a,False,1362,1,14359,trainPhase
2,9,A1,a,b,False,1114,1,14359,trainPhase
3,9,B2,b,a,False,1049,1,14359,trainPhase
4,9,B5,b,a,False,1033,1,14359,trainPhase
5,9,A3,a,b,False,1021,1,14359,trainPhase
6,9,B6,b,b,True,1290,1,14359,trainPhase
7,9,A4,a,a,True,862,1,14359,trainPhase
8,9,A0,a,a,True,839,1,14359,trainPhase
9,9,A6,a,a,True,1639,1,14359,trainPhase
10,9,B1,b,a,False,952,1,14359,trainPhase
11,9,B4,b,b,True,1062,1,14359,trainPhase
12,9,B3,b,b,True,1348,1,14359,trainPhase
13,9,A7,a,a,True,1031,1,14359,trainPhase
14,9,A2,a,a,True,917,1,14359,trainPhase
15,9,B7,b,a,False,2471,1,14359,trainPhase
0,10,A0,a,a,True,775,1,14359,trainPhase
1,10,B5,b,b,True,1604,1,14359,trainPhase
2,10,B1,b,a,False,1189,1,14359,trainPhase
3,10,B4,b,a,False,1184,1,14359,trainPhase
4,10,A7,a,a,True,667,1,14359,trainPhase
5,10,B0,b,a,False,1035,1,14359,trainPhase
6,10,B3,b,b,True,1432,1,14359,trainPhase
7,10,B6,b,b,True,1230,1,14359,trainPhase
8,10,A1,a,a,True,1286,1,14359,trainPhase
9,10,A5,a,b,False,1576,1,14359,trainPhase
10,10,B7,b,a,False,916,1,14359,trainPhase
11,10,B2,b,a,False,857,1,14359,trainPhase
12,10,A3,a,a,True,695,1,14359,trainPhase
13,10,A2,a,a,True,887,1,14359,trainPhase
14,10,A4,a,a,True,1309,1,14359,trainPhase
15,10,A6,a,a,True,1129,1,14359,trainPhase
0,11,B6,b,b,True,1160,1,14359,trainPhase
1,11,A6,a,b,False,939,1,14359,trainPhase
2,11,B4,b,a,False,1106,1,14359,trainPhase
3,11,A5,a,b,False,6264,1,14359,trainPhase
4,11,A3,a,a,True,508,1,14359,trainPhase
5,11,A0,a,a,True,787,1,14359,trainPhase
6,11,B7,b,a,False,745,1,14359,trainPhase
7,11,B0,b,a,False,1175,1,14359,trainPhase
8,11,B1,b,a,False,2000,1,14359,trainPhase
9,11,B3,b,a,False,693,1,14359,trainPhase
10,11,A7,a,a,True,779,1,14359,trainPhase
11,11,A4,a,b,False,1743,1,14359,trainPhase
12,11,A2,a,a,True,945,1,14359,trainPhase
13,11,B2,b,b,True,1171,1,14359,trainPhase
14,11,B5,b,b,True,1154,1,14359,trainPhase
15,11,A1,a,a,True,1489,1,14359,trainPhase
0,12,B4,b,b,True,1317,1,14359,trainPhase
1,12,B7,b,b,True,1629,1,14359,trainPhase
2,12,B1,b,a,False,804,1,14359,trainPhase
3,12,A5,a,a,True,1022,1,14359,trainPhase
4,12,A2,a,a,True,958,1,14359,trainPhase
5,12,A6,a,b,False,1159,1,14359,trainPhase
6,12,A0,a,a,True,1392,1,14359,trainPhase
7,12,A4,a,b,False,1697,1,14359,trainPhase
8,12,A3,a,a,True,1404,1,14359,trainPhase
9,12,B6,b,a,False,1582,1,14359,trainPhase
10,12,A1,a,b,False,661,1,14359,trainPhase
11,12,B2,b,a,False,902,1,14359,trainPhase
12,12,A7,a,b,False,1221,1,14359,trainPhase
13,12,B3,b,a,False,965,1,14359,trainPhase
14,12,B0,b,a,False,735,1,14359,trainPhase
15,12,B5,b,b,True,944,1,14359,trainPhase
0,13,B3,b,b,True,825,1,14359,trainPhase
1,13,A2,a,a,True,777,1,14359,trainPhase
2,13,B6,b,b,True,1441,1,14359,trainPhase
3,13,B1,b,b,True,1673,1,14359,trainPhase
4,13,B7,b,a,False,1566,1,14359,trainPhase
5,13,A5,a,a,True,4034,1,14359,trainPhase
6,13,B5,b,b,True,2015,1,14359,trainPhase
7,13,A1,a,a,True,1161,1,14359,trainPhase
8,13,A6,a,b,False,1487,1,14359,trainPhase
9,13,A4,a,a,True,960,1,14359,trainPhase
10,13,B2,b,a,False,916,1,14359,trainPhase
11,13,A7,a,b,False,6180,1,14359,trainPhase
12,13,B4,b,a,False,881,1,14359,trainPhase
13,13,A3,a,a,True,799,1,14359,trainPhase
14,13,B0,b,a,False,1095,1,14359,trainPhase
15,13,A0,a,a,True,1006,1,14359,trainPhase
0,14,B7,b,b,True,1237,1,14359,trainPhase
1,14,A4,a,b,False,1581,1,14359,trainPhase
2,14,A2,a,a,True,1017,1,14359,trainPhase
3,14,B2,b,b,True,1287,1,14359,trainPhase
4,14,B4,b,b,True,1276,1,14359,trainPhase
5,14,A6,a,a,True,1487,1,14359,trainPhase
6,14,A0,a,a,True,923,1,14359,trainPhase
7,14,A5,a,a,True,2454,1,14359,trainPhase
8,14,A7,a,a,True,2336,1,14359,trainPhase
9,14,A1,a,b,False,1431,1,14359,trainPhase
10,14,A3,a,a,True,1093,1,14359,trainPhase
11,14,B6,b,b,True,1028,1,14359,trainPhase
12,14,B3,b,b,True,949,1,14359,trainPhase
13,14,B5,b,a,False,1081,1,14359,trainPhase
14,14,B1,b,a,False,854,1,14359,trainPhase
15,14,B0,b,a,False,786,1,14359,trainPhase
0,0,B2,b,a,False,4932,1,15096,trainPhase
1,0,B0,b,b,True,2125,1,15096,trainPhase
2,0,A5,a,b,False,1473,1,15096,trainPhase
3,0,B4,b,b,True,1548,1,15096,trainPhase
4,0,A2,a,a,True,2367,1,15096,trainPhase
5,0,B6,b,b,True,1210,1,15096,trainPhase
6,0,A0,a,a,True,1045,1,15096,trainPhase
7,0,A6,a,b,False,1452,1,15096,trainPhase
8,0,B5,b,b,True,1301,1,15096,trainPhase
9,0,A3,a,b,False,1876,1,15096,trainPhase
10,0,B3,b,b,True,1773,1,15096,trainPhase
11,0,B1,b,a,False,1231,1,15096,trainPhase
12,0,B7,b,b,True,1370,1,15096,trainPhase
13,0,A4,a,b,False,2975,1,15096,trainPhase
14,0,A7,a,b,False,1105,1,15096,trainPhase
15,0,A1,a,b,False,1236,1,15096,trainPhase
0,1,B3,b,b,True,1681,1,15096,trainPhase
1,1,B6,b,a,False,1443,1,15096,trainPhase
2,1,A6,a,a,True,2230,1,15096,trainPhase
3,1,B7,b,a,False,3883,1,15096,trainPhase
4,1,B5,b,a,False,1503,1,15096,trainPhase
5,1,A2,a,b,False,1270,1,15096,trainPhase
6,1,A5,a,b,False,1778,1,15096,trainPhase
7,1,B2,b,b,True,1009,1,15096,trainPhase
8,1,A0,a,b,False,1645,1,15096,trainPhase
9,1,B4,b,b,True,1240,1,15096,trainPhase
10,1,A4,a,a,True,906,1,15096,trainPhase
11,1,B0,b,a,False,1151,1,15096,trainPhase
12,1,B1,b,a,False,1437,1,15096,trainPhase
13,1,A7,a,b,False,2061,1,15096,trainPhase
14,1,A1,a,a,True,2781,1,15096,trainPhase
15,1,A3,a,a,True,951,1,15096,trainPhase
0,2,B6,b,b,True,1645,1,15096,trainPhase
1,2,B5,b,b,True,949,1,15096,trainPhase
2,2,B2,b,b,True,769,1,15096,trainPhase
3,2,B0,b,b,True,981,1,15096,trainPhase
4,2,B1,b,b,True,1029,1,15096,trainPhase
5,2,A3,a,a,True,1156,1,15096,trainPhase
6,2,A0,a,b,False,1157,1,15096,trainPhase
7,2,A6,a,b,False,1906,1,15096,trainPhase
8,2,B7,b,a,False,1473,1,15096,trainPhase
9,2,A5,a,a,True,1645,1,15096,trainPhase
10,2,A7,a,a,True,2068,1,15096,trainPhase
11,2,A1,a,a,True,1127,1,15096,trainPhase
12,2,B4,b,a,False,909,1,15096,trainPhase
13,2,A2,a,b,False,2290,1,15096,trainPhase
14,2,A4,a,b,False,2557,1,15096,trainPhase
15,2,B3,b,b,True,1222,1,15096,trainPhase
0,3,A4,a,a,True,2466,1,15096,trainPhase
1,3,B0,b,a,False,875,1,15096,trainPhase
2,3,B1,b,a,False,1076,1,15096,trainPhase
3,3,B5,b,b,True,1317,1,15096,trainPhase
4,3,B2,b,b,True,933,1,15096,trainPhase
5,3,B7,b,b,True,868,1,15096,trainPhase
6,3,A7,a,a,True,1245,1,15096,trainPhase
7,3,A3,a,a,True,774,1,15096,trainPhase
8,3,A0,a,b,False,1110,1,15096,trainPhase
9,3,A6,a,b,False,1087,1,15096,trainPhase
10,3,A2,a,b,False,839,1,15096,trainPhase
11,3,B3,b,b,True,1294,1,15096,trainPhase
12,3,A5,a,b,False,862,1,15096,trainPhase
13,3,B4,b,a,False,894,1,15096,trainPhase
14,3,B6,b,b,True,494,1,15096,trainPhase
15,3,A1,a,b,False,750,1,15096,trainPhase
0,4,B7,b,a,False,1129,1,15096,trainPhase
1,4,B3,b,b,True,2297,1,15096,trainPhase
2,4,A7,a,b,False,1089,1,15096,trainPhase
3,4,B1,b,b,True,881,1,15096,trainPhase
4,4,A0,a,b,False,840,1,15096,trainPhase
5,4,A6,a,b,False,758,1,15096,trainPhase
6,4,A2,a,a,True,1014,1,15096,trainPhase
7,4,A1,a,b,False,1035,1,15096,trainPhase
8,4,B2,b,b,True,3494,1,15096,trainPhase
9,4,A5,a,a,True,1463,1,15096,trainPhase
10,4,A4,a,a,True,894,1,15096,trainPhase
11,4,B5,b,a,False,1094,1,15096,trainPhase
12,4,B4,b,b,True,900,1,15096,trainPhase
13,4,A3,a,b,False,1222,1,15096,trainPhase
14,4,B6,b,a,False,2495,1,15096,trainPhase
15,4,B0,b,b,True,1054,1,15096,trainPhase
0,5,A0,a,b,False,1198,1,15096,trainPhase
1,5,B4,b,b,True,2326,1,15096,trainPhase
2,5,A4,a,a,True,814,1,15096,trainPhase
3,5,B0,b,b,True,1023,1,15096,trainPhase
4,5,B1,b,b,True,949,1,15096,trainPhase
5,5,A3,a,a,True,908,1,15096,trainPhase
6,5,B7,b,b,True,709,1,15096,trainPhase
