trial,block,stimId,category,response,accuracy,rt,condition,id,phase
0,0,B0_55,b,a,False,2971,3,15036,singleFeatureTest
1,0,B0_80,b,b,True,3962,3,15036,singleFeatureTest
2,0,B0_70,b,a,False,4066,3,15036,singleFeatureTest
3,0,A0_00,a,a,True,3150,3,15036,singleFeatureTest
4,0,A0_10,a,b,False,1666,3,15036,singleFeatureTest
5,0,A0_20,a,a,True,1631,3,15036,singleFeatureTest
6,0,B0_50,b,b,True,2846,3,15036,singleFeatureTest
7,0,A0_40,a,b,False,1148,3,15036,singleFeatureTest
8,0,B0_80,b,a,False,1868,3,15036,singleFeatureTest
9,0,A0_45,a,a,True,2038,3,15036,singleFeatureTest
10,0,B0_40,b,b,True,5140,3,15036,singleFeatureTest
11,0,A0_50,a,b,False,2596,3,15036,singleFeatureTest
12,0,A0_30,a,b,False,949,3,15036,singleFeatureTest
13,0,A0_20,a,b,False,861,3,15036,singleFeatureTest
14,0,B0_90,b,a,False,733,3,15036,singleFeatureTest
15,0,B0_60,b,a,False,1006,3,15036,singleFeatureTest
16,0,T0_65,t,b,False,1588,3,15036,singleFeatureTest
17,0,T0_70,t,b,False,671,3,15036,singleFeatureTest
18,0,T0_60,t,a,False,1054,3,15036,singleFeatureTest
19,0,T0_50,t,a,False,1221,3,15036,singleFeatureTest
20,0,T0_40,t,a,False,1015,3,15036,singleFeatureTest
0,0,T0_70,t,a,False,5459,3,15041,singleFeatureTest
1,0,A0_30,a,a,True,3110,3,15041,singleFeatureTest
2,0,B0_70,b,b,True,971,3,15041,singleFeatureTest
3,0,T0_50,t,a,False,4238,3,15041,singleFeatureTest
4,0,B0_80,b,b,True,1714,3,15041,singleFeatureTest
5,0,A0_20,a,a,True,1154,3,15041,singleFeatureTest
6,0,A0_50,a,a,True,1566,3,15041,singleFeatureTest
7,0,B0_80,b,b,True,1578,3,15041,singleFeatureTest
8,0,T0_65,t,b,False,1466,3,15041,singleFeatureTest
9,0,T0_40,t,a,False,3089,3,15041,singleFeatureTest
10,0,A0_20,a,a,True,1007,3,15041,singleFeatureTest
11,0,B0_90,b,b,True,1255,3,15041,singleFeatureTest
12,0,A0_40,a,a,True,979,3,15041,singleFeatureTest
13,0,B0_55,b,a,False,1120,3,15041,singleFeatureTest
14,0,A0_45,a,b,False,918,3,15041,singleFeatureTest
15,0,T0_60,t,b,False,829,3,15041,singleFeatureTest
16,0,A0_00,a,a,True,1162,3,15041,singleFeatureTest
17,0,A0_10,a,a,True,856,3,15041,singleFeatureTest
18,0,B0_50,b,a,False,1205,3,15041,singleFeatureTest
19,0,B0_40,b,a,False,747,3,15041,singleFeatureTest
20,0,B0_60,b,a,False,803,3,15041,singleFeatureTest
0,0,A0_20,a,b,False,2182,3,15046,singleFeatureTest
1,0,T0_50,t,b,False,1779,3,15046,singleFeatureTest
2,0,T0_70,t,b,False,1164,3,15046,singleFeatureTest
3,0,A0_45,a,b,False,863,3,15046,singleFeatureTest
4,0,B0_90,b,b,True,2516,3,15046,singleFeatureTest
5,0,A0_10,a,a,True,1064,3,15046,singleFeatureTest
6,0,A0_20,a,a,True,1055,3,15046,singleFeatureTest
7,0,A0_00,a,a,True,1140,3,15046,singleFeatureTest
8,0,T0_40,t,b,False,1030,3,15046,singleFeatureTest
9,0,B0_80,b,b,True,1072,3,15046,singleFeatureTest
10,0,B0_40,b,a,False,3262,3,15046,singleFeatureTest
11,0,T0_65,t,b,False,1057,3,15046,singleFeatureTest
12,0,B0_55,b,b,True,1044,3,15046,singleFeatureTest
13,0,B0_50,b,b,True,1383,3,15046,singleFeatureTest
14,0,B0_80,b,b,True,1136,3,15046,singleFeatureTest
15,0,A0_30,a,a,True,803,3,15046,singleFeatureTest
16,0,T0_60,t,b,False,993,3,15046,singleFeatureTest
17,0,A0_40,a,a,True,2023,3,15046,singleFeatureTest
18,0,B0_60,b,b,True,1155,3,15046,singleFeatureTest
19,0,A0_50,a,a,True,1379,3,15046,singleFeatureTest
20,0,B0_70,b,b,True,811,3,15046,singleFeatureTest
0,0,B0_90,b,b,True,4359,3,15068,singleFeatureTest
1,0,T0_65,t,b,False,5134,3,15068,singleFeatureTest
2,0,A0_45,a,b,False,6414,3,15068,singleFeatureTest
3,0,A0_20,a,a,True,1791,3,15068,singleFeatureTest
4,0,T0_50,t,a,False,4854,3,15068,singleFeatureTest
5,0,A0_40,a,a,True,1264,3,15068,singleFeatureTest
6,0,B0_55,b,b,True,4894,3,15068,singleFeatureTest
7,0,T0_60,t,b,False,1536,3,15068,singleFeatureTest
8,0,A0_30,a,a,True,998,3,15068,singleFeatureTest
9,0,A0_00,a,a,True,790,3,15068,singleFeatureTest
10,0,T0_70,t,b,False,949,3,15068,singleFeatureTest
11,0,A0_50,a,a,True,5494,3,15068,singleFeatureTest
12,0,B0_70,b,b,True,1030,3,15068,singleFeatureTest
13,0,B0_80,b,b,True,1221,3,15068,singleFeatureTest
14,0,B0_50,b,a,False,1310,3,15068,singleFeatureTest
15,0,A0_20,a,a,True,1150,3,15068,singleFeatureTest
16,0,A0_10,a,a,True,1533,3,15068,singleFeatureTest
17,0,B0_60,b,a,False,2845,3,15068,singleFeatureTest
18,0,B0_80,b,b,True,1014,3,15068,singleFeatureTest
19,0,B0_40,b,a,False,1033,3,15068,singleFeatureTest
20,0,T0_40,t,a,False,2781,3,15068,singleFeatureTest
0,0,A0_45,a,b,False,3648,3,15073,singleFeatureTest
1,0,B0_40,b,a,False,7535,3,15073,singleFeatureTest
2,0,B0_80,b,b,True,1300,3,15073,singleFeatureTest
3,0,B0_50,b,b,True,3314,3,15073,singleFeatureTest
4,0,B0_70,b,b,True,1011,3,15073,singleFeatureTest
5,0,B0_55,b,a,False,2053,3,15073,singleFeatureTest
6,0,T0_50,t,a,False,1124,3,15073,singleFeatureTest
7,0,T0_65,t,b,False,1409,3,15073,singleFeatureTest
8,0,A0_50,a,a,True,4892,3,15073,singleFeatureTest
9,0,A0_30,a,a,True,1231,3,15073,singleFeatureTest
10,0,A0_00,a,a,True,1353,3,15073,singleFeatureTest
11,0,B0_80,b,b,True,1103,3,15073,singleFeatureTest
12,0,A0_20,a,a,True,1100,3,15073,singleFeatureTest
13,0,B0_90,b,b,True,1034,3,15073,singleFeatureTest
14,0,T0_40,t,a,False,1257,3,15073,singleFeatureTest
15,0,B0_60,b,b,True,1475,3,15073,singleFeatureTest
16,0,A0_10,a,a,True,969,3,15073,singleFeatureTest
17,0,T0_60,t,a,False,1789,3,15073,singleFeatureTest
18,0,T0_70,t,b,False,1231,3,15073,singleFeatureTest
19,0,A0_40,a,a,True,4912,3,15073,singleFeatureTest
20,0,A0_20,a,a,True,1328,3,15073,singleFeatureTest
0,0,B0_80,b,b,True,5066,3,15088,singleFeatureTest
1,0,A0_20,a,a,True,3763,3,15088,singleFeatureTest
2,0,B0_70,b,b,True,1667,3,15088,singleFeatureTest
3,0,T0_40,t,b,False,8647,3,15088,singleFeatureTest
4,0,A0_45,a,b,False,2267,3,15088,singleFeatureTest
5,0,A0_50,a,b,False,2961,3,15088,singleFeatureTest
6,0,T0_50,t,b,False,4317,3,15088,singleFeatureTest
7,0,B0_50,b,b,True,1147,3,15088,singleFeatureTest
8,0,A0_40,a,b,False,1403,3,15088,singleFeatureTest
9,0,A0_00,a,a,True,3326,3,15088,singleFeatureTest
10,0,T0_70,t,b,False,1381,3,15088,singleFeatureTest
11,0,B0_40,b,b,True,1293,3,15088,singleFeatureTest
12,0,T0_60,t,b,False,1444,3,15088,singleFeatureTest
13,0,A0_20,a,a,True,1035,3,15088,singleFeatureTest
14,0,T0_65,t,b,False,1256,3,15088,singleFeatureTest
15,0,B0_90,b,b,True,1427,3,15088,singleFeatureTest
16,0,B0_60,b,b,True,1642,3,15088,singleFeatureTest
17,0,A0_10,a,a,True,1314,3,15088,singleFeatureTest
18,0,A0_30,a,b,False,1289,3,15088,singleFeatureTest
19,0,B0_55,b,b,True,2210,3,15088,singleFeatureTest
20,0,B0_80,b,b,True,1159,3,15088,singleFeatureTest
0,0,A0_20,a,b,False,2815,3,15093,singleFeatureTest
1,0,B0_90,b,b,True,4448,3,15093,singleFeatureTest
2,0,A0_45,a,a,True,5872,3,15093,singleFeatureTest
3,0,B0_70,b,b,True,4034,3,15093,singleFeatureTest
4,0,T0_65,t,b,False,2218,3,15093,singleFeatureTest
5,0,A0_30,a,b,False,3350,3,15093,singleFeatureTest
6,0,B0_80,b,b,True,2217,3,15093,singleFeatureTest
7,0,A0_40,a,b,False,3054,3,15093,singleFeatureTest
8,0,A0_20,a,a,True,1425,3,15093,singleFeatureTest
9,0,A0_10,a,b,False,2247,3,15093,singleFeatureTest
10,0,B0_50,b,b,True,2086,3,15093,singleFeatureTest
11,0,A0_00,a,b,False,2606,3,15093,singleFeatureTest
12,0,T0_70,t,b,False,4835,3,15093,singleFeatureTest
13,0,T0_50,t,a,False,2752,3,15093,singleFeatureTest
14,0,T0_40,t,a,False,1654,3,15093,singleFeatureTest
15,0,B0_55,b,b,True,1606,3,15093,singleFeatureTest
16,0,B0_60,b,b,True,1490,3,15093,singleFeatureTest
17,0,T0_60,t,b,False,2052,3,15093,singleFeatureTest
18,0,B0_40,b,b,True,1942,3,15093,singleFeatureTest
19,0,B0_80,b,b,True,1901,3,15093,singleFeatureTest
20,0,A0_50,a,b,False,4257,3,15093,singleFeatureTest
0,0,T0_60,t,b,False,2487,3,15098,singleFeatureTest
1,0,A0_00,a,a,True,1060,3,15098,singleFeatureTest
2,0,B0_80,b,a,False,3687,3,15098,singleFeatureTest
3,0,A0_30,a,a,True,1641,3,15098,singleFeatureTest
4,0,B0_80,b,b,True,2002,3,15098,singleFeatureTest
5,0,B0_70,b,a,False,1738,3,15098,singleFeatureTest
6,0,T0_65,t,b,False,1983,3,15098,singleFeatureTest
7,0,A0_20,a,a,True,842,3,15098,singleFeatureTest
8,0,T0_70,t,b,False,842,3,15098,singleFeatureTest
9,0,T0_50,t,b,False,880,3,15098,singleFeatureTest
10,0,B0_40,b,a,False,1089,3,15098,singleFeatureTest
11,0,A0_20,a,a,True,913,3,15098,singleFeatureTest
12,0,T0_40,t,b,False,1251,3,15098,singleFeatureTest
13,0,A0_45,a,b,False,1128,3,15098,singleFeatureTest
14,0,A0_10,a,a,True,787,3,15098,singleFeatureTest
15,0,B0_60,b,a,False,1030,3,15098,singleFeatureTest
16,0,A0_50,a,a,True,845,3,15098,singleFeatureTest
17,0,B0_55,b,b,True,1999,3,15098,singleFeatureTest
18,0,B0_50,b,a,False,2665,3,15098,singleFeatureTest
19,0,A0_40,a,a,True,775,3,15098,singleFeatureTest
20,0,B0_90,b,b,True,815,3,15098,singleFeatureTest
0,0,A0_50,a,a,True,2700,3,15103,singleFeatureTest
1,0,B0_50,b,a,False,1860,3,15103,singleFeatureTest
2,0,T0_40,t,b,False,1182,3,15103,singleFeatureTest
3,0,A0_10,a,a,True,814,3,15103,singleFeatureTest
4,0,A0_30,a,a,True,1003,3,15103,singleFeatureTest
5,0,B0_40,b,a,False,948,3,15103,singleFeatureTest
6,0,A0_40,a,a,True,865,3,15103,singleFeatureTest
7,0,T0_50,t,b,False,834,3,15103,singleFeatureTest
8,0,A0_20,a,b,False,735,3,15103,singleFeatureTest
9,0,B0_60,b,a,False,2714,3,15103,singleFeatureTest
10,0,A0_20,a,a,True,964,3,15103,singleFeatureTest
11,0,B0_70,b,b,True,1366,3,15103,singleFeatureTest
12,0,T0_60,t,b,False,873,3,15103,singleFeatureTest
13,0,B0_55,b,b,True,766,3,15103,singleFeatureTest
14,0,B0_80,b,b,True,1286,3,15103,singleFeatureTest
15,0,A0_00,a,a,True,779,3,15103,singleFeatureTest
16,0,B0_80,b,b,True,1329,3,15103,singleFeatureTest
17,0,A0_45,a,b,False,769,3,15103,singleFeatureTest
18,0,T0_70,t,b,False,688,3,15103,singleFeatureTest
19,0,T0_65,t,b,False,639,3,15103,singleFeatureTest
20,0,B0_90,b,b,True,1334,3,15103,singleFeatureTest
0,0,T0_70,t,a,False,3028,3,15108,singleFeatureTest
1,0,A0_10,a,b,False,1495,3,15108,singleFeatureTest
2,0,A0_20,a,a,True,732,3,15108,singleFeatureTest
3,0,B0_50,b,b,True,590,3,15108,singleFeatureTest
4,0,A0_20,a,b,False,1126,3,15108,singleFeatureTest
5,0,B0_80,b,b,True,699,3,15108,singleFeatureTest
6,0,T0_50,t,a,False,881,3,15108,singleFeatureTest
7,0,B0_90,b,b,True,678,3,15108,singleFeatureTest
8,0,B0_40,b,b,True,1286,3,15108,singleFeatureTest
9,0,B0_80,b,a,False,1245,3,15108,singleFeatureTest
10,0,T0_40,t,a,False,2278,3,15108,singleFeatureTest
11,0,B0_70,b,b,True,869,3,15108,singleFeatureTest
12,0,T0_60,t,a,False,650,3,15108,singleFeatureTest
13,0,T0_65,t,a,False,853,3,15108,singleFeatureTest
14,0,B0_55,b,a,False,742,3,15108,singleFeatureTest
15,0,A0_40,a,b,False,906,3,15108,singleFeatureTest
16,0,A0_30,a,b,False,582,3,15108,singleFeatureTest
17,0,B0_60,b,b,True,422,3,15108,singleFeatureTest
18,0,A0_50,a,b,False,740,3,15108,singleFeatureTest
19,0,A0_45,a,b,False,645,3,15108,singleFeatureTest
20,0,A0_00,a,a,True,574,3,15108,singleFeatureTest
0,0,B0_60,b,b,True,3627,3,15113,singleFeatureTest
1,0,B0_40,b,b,True,4426,3,15113,singleFeatureTest
2,0,T0_70,t,b,False,5741,3,15113,singleFeatureTest
3,0,B0_90,b,b,True,1410,3,15113,singleFeatureTest
4,0,B0_80,b,b,True,861,3,15113,singleFeatureTest
5,0,A0_00,a,a,True,889,3,15113,singleFeatureTest
6,0,B0_70,b,b,True,1558,3,15113,singleFeatureTest
7,0,A0_50,a,b,False,2336,3,15113,singleFeatureTest
8,0,A0_10,a,a,True,1135,3,15113,singleFeatureTest
9,0,A0_20,a,a,True,1845,3,15113,singleFeatureTest
10,0,A0_30,a,a,True,2198,3,15113,singleFeatureTest
11,0,T0_40,t,b,False,7822,3,15113,singleFeatureTest
12,0,T0_65,t,b,False,1384,3,15113,singleFeatureTest
13,0,T0_60,t,b,False,892,3,15113,singleFeatureTest
14,0,T0_50,t,b,False,804,3,15113,singleFeatureTest
15,0,A0_20,a,a,True,1190,3,15113,singleFeatureTest
16,0,A0_40,a,b,False,1162,3,15113,singleFeatureTest
17,0,B0_50,b,b,True,925,3,15113,singleFeatureTest
18,0,B0_80,b,b,True,1365,3,15113,singleFeatureTest
19,0,B0_55,b,b,True,665,3,15113,singleFeatureTest
20,0,A0_45,a,b,False,900,3,15113,singleFeatureTest
0,0,B0_50,b,b,True,4503,3,15118,singleFeatureTest
1,0,A0_40,a,a,True,1701,3,15118,singleFeatureTest
2,0,A0_20,a,a,True,2095,3,15118,singleFeatureTest
3,0,T0_40,t,b,False,1998,3,15118,singleFeatureTest
4,0,B0_80,b,b,True,895,3,15118,singleFeatureTest
5,0,T0_70,t,b,False,950,3,15118,singleFeatureTest
6,0,B0_55,b,b,True,1382,3,15118,singleFeatureTest
7,0,A0_45,a,b,False,2452,3,15118,singleFeatureTest
8,0,T0_65,t,b,False,1081,3,15118,singleFeatureTest
9,0,T0_60,t,b,False,2671,3,15118,singleFeatureTest
10,0,A0_00,a,a,True,1149,3,15118,singleFeatureTest
11,0,B0_40,b,a,False,1086,3,15118,singleFeatureTest
12,0,A0_50,a,b,False,3240,3,15118,singleFeatureTest
13,0,T0_50,t,b,False,3806,3,15118,singleFeatureTest
14,0,B0_80,b,b,True,1479,3,15118,singleFeatureTest
15,0,A0_20,a,a,True,939,3,15118,singleFeatureTest
16,0,A0_30,a,a,True,877,3,15118,singleFeatureTest
17,0,B0_60,b,b,True,3754,3,15118,singleFeatureTest
18,0,A0_10,a,a,True,990,3,15118,singleFeatureTest
19,0,B0_70,b,b,True,2455,3,15118,singleFeatureTest
20,0,B0_90,b,b,True,1235,3,15118,singleFeatureTest
0,0,B0_80,b,b,True,3071,3,15123,singleFeatureTest
1,0,A0_30,a,a,True,1496,3,15123,singleFeatureTest
2,0,T0_65,t,b,False,4127,3,15123,singleFeatureTest
3,0,A0_40,a,a,True,2431,3,15123,singleFeatureTest
4,0,B0_55,b,a,False,1661,3,15123,singleFeatureTest
5,0,T0_70,t,a,False,2796,3,15123,singleFeatureTest
6,0,A0_20,a,a,True,1330,3,15123,singleFeatureTest
7,0,A0_45,a,a,True,3625,3,15123,singleFeatureTest
8,0,A0_20,a,a,True,1238,3,15123,singleFeatureTest
9,0,B0_50,b,b,True,1351,3,15123,singleFeatureTest
10,0,T0_50,t,b,False,1877,3,15123,singleFeatureTest
11,0,T0_60,t,b,False,4629,3,15123,singleFeatureTest
12,0,B0_60,b,b,True,1163,3,15123,singleFeatureTest
13,0,A0_00,a,a,True,879,3,15123,singleFeatureTest
14,0,A0_50,a,b,False,1554,3,15123,singleFeatureTest
15,0,B0_70,b,b,True,1509,3,15123,singleFeatureTest
16,0,B0_40,b,a,False,1022,3,15123,singleFeatureTest
17,0,T0_40,t,a,False,912,3,15123,singleFeatureTest
18,0,B0_90,b,b,True,1348,3,15123,singleFeatureTest
19,0,B0_80,b,b,True,1425,3,15123,singleFeatureTest
20,0,A0_10,a,a,True,867,3,15123,singleFeatureTest
0,0,A0_50,a,a,True,7356,3,15128,singleFeatureTest
1,0,T0_50,t,b,False,7260,3,15128,singleFeatureTest
2,0,T0_60,t,b,False,4454,3,15128,singleFeatureTest
3,0,A0_40,a,a,True,3013,3,15128,singleFeatureTest
4,0,A0_00,a,a,True,1211,3,15128,singleFeatureTest
5,0,T0_65,t,b,False,1296,3,15128,singleFeatureTest
6,0,T0_40,t,a,False,2465,3,15128,singleFeatureTest
7,0,A0_20,a,a,True,891,3,15128,singleFeatureTest
8,0,A0_20,a,a,True,1120,3,15128,singleFeatureTest
9,0,B0_40,b,a,False,914,3,15128,singleFeatureTest
10,0,A0_10,a,a,True,848,3,15128,singleFeatureTest
11,0,B0_70,b,b,True,1165,3,15128,singleFeatureTest
12,0,B0_60,b,b,True,952,3,15128,singleFeatureTest
13,0,B0_50,b,b,True,923,3,15128,singleFeatureTest
14,0,A0_30,a,a,True,1104,3,15128,singleFeatureTest
15,0,B0_80,b,b,True,1520,3,15128,singleFeatureTest
16,0,A0_45,a,a,True,1606,3,15128,singleFeatureTest
17,0,B0_90,b,a,False,1221,3,15128,singleFeatureTest
18,0,B0_80,b,b,True,2563,3,15128,singleFeatureTest
19,0,B0_55,b,b,True,1989,3,15128,singleFeatureTest
20,0,T0_70,t,b,False,1296,3,15128,singleFeatureTest
0,0,B0_70,b,b,True,4629,3,15133,singleFeatureTest
1,0,A0_30,a,a,True,7485,3,15133,singleFeatureTest
2,0,T0_70,t,b,False,5141,3,15133,singleFeatureTest
3,0,A0_00,a,a,True,5993,3,15133,singleFeatureTest
4,0,A0_45,a,b,False,23552,3,15133,singleFeatureTest
5,0,B0_50,b,a,False,12152,3,15133,singleFeatureTest
6,0,A0_10,a,a,True,13613,3,15133,singleFeatureTest
7,0,B0_40,b,b,True,26150,3,15133,singleFeatureTest
8,0,A0_50,a,b,False,25994,3,15133,singleFeatureTest
9,0,A0_20,a,a,True,30135,3,15133,singleFeatureTest
10,0,A0_20,a,b,False,27675,3,15133,singleFeatureTest
11,0,B0_55,b,b,True,28780,3,15133,singleFeatureTest
12,0,B0_60,b,b,True,21052,3,15133,singleFeatureTest
13,0,B0_80,b,b,True,2037,3,15133,singleFeatureTest
14,0,T0_60,t,b,False,1583,3,15133,singleFeatureTest
15,0,B0_80,b,b,True,1301,3,15133,singleFeatureTest
16,0,T0_65,t,b,False,1003,3,15133,singleFeatureTest
17,0,T0_40,t,b,False,2149,3,15133,singleFeatureTest
18,0,T0_50,t,b,False,1066,3,15133,singleFeatureTest
19,0,A0_40,a,a,True,3333,3,15133,singleFeatureTest
20,0,B0_90,b,b,True,1114,3,15133,singleFeatureTest
0,0,A0_50,a,b,False,6845,3,15138,singleFeatureTest
1,0,A0_30,a,a,True,3938,3,15138,singleFeatureTest
2,0,A0_20,a,a,True,988,3,15138,singleFeatureTest
3,0,A0_00,a,a,True,877,3,15138,singleFeatureTest
4,0,T0_65,t,b,False,2036,3,15138,singleFeatureTest
5,0,B0_70,b,b,True,3302,3,15138,singleFeatureTest
6,0,T0_50,t,b,False,2331,3,15138,singleFeatureTest
7,0,A0_20,a,a,True,1312,3,15138,singleFeatureTest
8,0,B0_80,b,b,True,1717,3,15138,singleFeatureTest
9,0,A0_10,a,a,True,1158,3,15138,singleFeatureTest
10,0,B0_40,b,a,False,2437,3,15138,singleFeatureTest
11,0,B0_55,b,b,True,1443,3,15138,singleFeatureTest
12,0,T0_40,t,a,False,1596,3,15138,singleFeatureTest
13,0,B0_80,b,b,True,1070,3,15138,singleFeatureTest
14,0,B0_90,b,b,True,2229,3,15138,singleFeatureTest
15,0,B0_60,b,b,True,1089,3,15138,singleFeatureTest
16,0,B0_50,b,a,False,3341,3,15138,singleFeatureTest
17,0,T0_70,t,b,False,1269,3,15138,singleFeatureTest
18,0,T0_60,t,a,False,1716,3,15138,singleFeatureTest
19,0,A0_40,a,a,True,1133,3,15138,singleFeatureTest
20,0,A0_45,a,a,True,1759,3,15138,singleFeatureTest
0,0,B0_80,b,b,True,3315,3,15143,singleFeatureTest
1,0,B0_90,b,b,True,7556,3,15143,singleFeatureTest
2,0,T0_65,t,b,False,1451,3,15143,singleFeatureTest
3,0,T0_60,t,b,False,1015,3,15143,singleFeatureTest
4,0,B0_55,b,b,True,789,3,15143,singleFeatureTest
5,0,T0_40,t,a,False,1151,3,15143,singleFeatureTest
6,0,B0_60,b,b,True,1132,3,15143,singleFeatureTest
7,0,A0_10,a,b,False,1205,3,15143,singleFeatureTest
8,0,B0_70,b,b,True,765,3,15143,singleFeatureTest
9,0,B0_50,b,b,True,761,3,15143,singleFeatureTest
10,0,A0_50,a,b,False,888,3,15143,singleFeatureTest
11,0,A0_20,a,a,True,972,3,15143,singleFeatureTest
12,0,A0_30,a,a,True,1790,3,15143,singleFeatureTest
13,0,B0_40,b,b,True,1093,3,15143,singleFeatureTest
14,0,T0_50,t,a,False,1671,3,15143,singleFeatureTest
15,0,A0_45,a,a,True,738,3,15143,singleFeatureTest
16,0,B0_80,b,a,False,1085,3,15143,singleFeatureTest
17,0,T0_70,t,b,False,1437,3,15143,singleFeatureTest
18,0,A0_40,a,b,False,1676,3,15143,singleFeatureTest
19,0,A0_20,a,b,False,1338,3,15143,singleFeatureTest
20,0,A0_00,a,b,False,657,3,15143,singleFeatureTest
0,0,B0_70,b,b,True,4332,3,15148,singleFeatureTest
1,0,A0_45,a,b,False,2617,3,15148,singleFeatureTest
2,0,A0_20,a,a,True,2564,3,15148,singleFeatureTest
3,0,A0_30,a,a,True,2977,3,15148,singleFeatureTest
4,0,T0_60,t,b,False,1273,3,15148,singleFeatureTest
5,0,T0_40,t,b,False,817,3,15148,singleFeatureTest
6,0,B0_60,b,a,False,5678,3,15148,singleFeatureTest
7,0,B0_40,b,a,False,1023,3,15148,singleFeatureTest
8,0,B0_80,b,b,True,797,3,15148,singleFeatureTest
9,0,A0_50,a,a,True,1286,3,15148,singleFeatureTest
10,0,B0_50,b,a,False,1062,3,15148,singleFeatureTest
11,0,T0_50,t,b,False,758,3,15148,singleFeatureTest
12,0,A0_40,a,a,True,972,3,15148,singleFeatureTest
13,0,A0_10,a,a,True,838,3,15148,singleFeatureTest
14,0,T0_65,t,b,False,798,3,15148,singleFeatureTest
15,0,A0_20,a,a,True,3129,3,15148,singleFeatureTest
16,0,A0_00,a,a,True,3312,3,15148,singleFeatureTest
17,0,B0_55,b,b,True,853,3,15148,singleFeatureTest
18,0,T0_70,t,b,False,646,3,15148,singleFeatureTest
19,0,B0_90,b,b,True,2632,3,15148,singleFeatureTest
20,0,B0_80,b,b,True,929,3,15148,singleFeatureTest
0,0,A0_20,a,a,True,3639,3,15153,singleFeatureTest
1,0,A0_45,a,a,True,3894,3,15153,singleFeatureTest
2,0,B0_50,b,a,False,1494,3,15153,singleFeatureTest
3,0,B0_60,b,b,True,2359,3,15153,singleFeatureTest
4,0,B0_80,b,b,True,903,3,15153,singleFeatureTest
5,0,B0_40,b,a,False,1477,3,15153,singleFeatureTest
6,0,B0_80,b,b,True,1257,3,15153,singleFeatureTest
7,0,A0_50,a,a,True,1267,3,15153,singleFeatureTest
8,0,T0_60,t,a,False,1375,3,15153,singleFeatureTest
9,0,T0_40,t,a,False,1152,3,15153,singleFeatureTest
10,0,A0_20,a,a,True,1086,3,15153,singleFeatureTest
11,0,T0_50,t,a,False,1538,3,15153,singleFeatureTest
12,0,T0_70,t,b,False,2172,3,15153,singleFeatureTest
13,0,A0_30,a,a,True,1317,3,15153,singleFeatureTest
14,0,A0_00,a,a,True,944,3,15153,singleFeatureTest
15,0,B0_70,b,b,True,1292,3,15153,singleFeatureTest
16,0,A0_10,a,a,True,870,3,15153,singleFeatureTest
17,0,B0_90,b,b,True,930,3,15153,singleFeatureTest
18,0,B0_55,b,a,False,3725,3,15153,singleFeatureTest
19,0,A0_40,a,a,True,1336,3,15153,singleFeatureTest
20,0,T0_65,t,b,False,917,3,15153,singleFeatureTest
0,0,T0_65,t,b,False,1965,3,15158,singleFeatureTest
1,0,B0_80,b,b,True,5204,3,15158,singleFeatureTest
2,0,A0_40,a,a,True,3358,3,15158,singleFeatureTest
3,0,T0_70,t,b,False,4903,3,15158,singleFeatureTest
4,0,B0_80,b,b,True,2151,3,15158,singleFeatureTest
5,0,A0_45,a,a,True,3943,3,15158,singleFeatureTest
6,0,T0_40,t,a,False,3292,3,15158,singleFeatureTest
7,0,T0_50,t,b,False,1554,3,15158,singleFeatureTest
8,0,B0_60,b,b,True,1903,3,15158,singleFeatureTest
9,0,A0_00,a,a,True,1072,3,15158,singleFeatureTest
10,0,B0_90,b,b,True,1004,3,15158,singleFeatureTest
11,0,B0_40,b,b,True,3516,3,15158,singleFeatureTest
12,0,A0_10,a,a,True,899,3,15158,singleFeatureTest
13,0,T0_60,t,b,False,3054,3,15158,singleFeatureTest
14,0,B0_55,b,a,False,7055,3,15158,singleFeatureTest
15,0,A0_20,a,a,True,1216,3,15158,singleFeatureTest
16,0,A0_20,a,a,True,1216,3,15158,singleFeatureTest
17,0,B0_70,b,b,True,1525,3,15158,singleFeatureTest
18,0,B0_50,b,b,True,1293,3,15158,singleFeatureTest
19,0,A0_50,a,b,False,1348,3,15158,singleFeatureTest
20,0,A0_30,a,a,True,1037,3,15158,singleFeatureTest
0,0,B0_55,b,b,True,5211,3,15163,singleFeatureTest
1,0,A0_30,a,a,True,6369,3,15163,singleFeatureTest
2,0,B0_40,b,a,False,2277,3,15163,singleFeatureTest
3,0,A0_40,a,b,False,4745,3,15163,singleFeatureTest
4,0,B0_80,b,b,True,4807,3,15163,singleFeatureTest
5,0,T0_50,t,b,False,3002,3,15163,singleFeatureTest
6,0,A0_10,a,a,True,1775,3,15163,singleFeatureTest
7,0,B0_70,b,b,True,1548,3,15163,singleFeatureTest
8,0,B0_50,b,a,False,3580,3,15163,singleFeatureTest
9,0,B0_60,b,b,True,1251,3,15163,singleFeatureTest
10,0,B0_80,b,b,True,2544,3,15163,singleFeatureTest
11,0,B0_90,b,b,True,1134,3,15163,singleFeatureTest
12,0,A0_20,a,b,False,1198,3,15163,singleFeatureTest
13,0,T0_65,t,b,False,17248,3,15163,singleFeatureTest
14,0,A0_20,a,a,True,980,3,15163,singleFeatureTest
15,0,A0_45,a,a,True,5975,3,15163,singleFeatureTest
16,0,T0_70,t,b,False,852,3,15163,singleFeatureTest
17,0,A0_00,a,a,True,1990,3,15163,singleFeatureTest
18,0,T0_60,t,b,False,1830,3,15163,singleFeatureTest
19,0,A0_50,a,a,True,1679,3,15163,singleFeatureTest
20,0,T0_40,t,a,False,2099,3,15163,singleFeatureTest
0,0,B0_50,b,b,True,5819,3,15190,singleFeatureTest
1,0,T0_65,t,b,False,2674,3,15190,singleFeatureTest
2,0,T0_70,t,b,False,1648,3,15190,singleFeatureTest
3,0,B0_80,b,b,True,1095,3,15190,singleFeatureTest
4,0,A0_20,a,a,True,936,3,15190,singleFeatureTest
5,0,A0_00,a,a,True,932,3,15190,singleFeatureTest
6,0,B0_60,b,b,True,1890,3,15190,singleFeatureTest
7,0,A0_10,a,a,True,1036,3,15190,singleFeatureTest
8,0,B0_40,b,a,False,1008,3,15190,singleFeatureTest
9,0,T0_40,t,a,False,1461,3,15190,singleFeatureTest
10,0,A0_20,a,a,True,2699,3,15190,singleFeatureTest
11,0,A0_30,a,b,False,1000,3,15190,singleFeatureTest
12,0,T0_50,t,a,False,1331,3,15190,singleFeatureTest
13,0,B0_90,b,b,True,1614,3,15190,singleFeatureTest
14,0,B0_55,b,b,True,2498,3,15190,singleFeatureTest
15,0,A0_45,a,a,True,929,3,15190,singleFeatureTest
16,0,A0_50,a,b,False,1815,3,15190,singleFeatureTest
17,0,B0_70,b,b,True,1000,3,15190,singleFeatureTest
18,0,T0_60,t,b,False,1671,3,15190,singleFeatureTest
19,0,A0_40,a,b,False,1056,3,15190,singleFeatureTest
20,0,B0_80,b,b,True,1687,3,15190,singleFeatureTest
0,0,A0_30,a,a,True,4460,3,15208,singleFeatureTest
1,0,B0_55,b,b,True,8317,3,15208,singleFeatureTest
2,0,B0_60,b,b,True,12075,3,15208,singleFeatureTest
3,0,A0_20,a,a,True,1233,3,15208,singleFeatureTest
4,0,T0_70,t,b,False,3212,3,15208,singleFeatureTest
5,0,T0_40,t,b,False,4480,3,15208,singleFeatureTest
6,0,T0_60,t,b,False,1989,3,15208,singleFeatureTest
7,0,B0_90,b,b,True,2837,3,15208,singleFeatureTest
8,0,A0_50,a,a,True,1828,3,15208,singleFeatureTest
9,0,A0_00,a,a,True,1054,3,15208,singleFeatureTest
10,0,B0_40,b,a,False,1271,3,15208,singleFeatureTest
11,0,A0_40,a,a,True,1773,3,15208,singleFeatureTest
12,0,B0_80,b,b,True,1078,3,15208,singleFeatureTest
13,0,T0_50,t,b,False,5374,3,15208,singleFeatureTest
14,0,A0_45,a,b,False,6110,3,15208,singleFeatureTest
15,0,B0_80,b,b,True,7104,3,15208,singleFeatureTest
16,0,B0_70,b,b,True,1541,3,15208,singleFeatureTest
17,0,A0_20,a,a,True,2638,3,15208,singleFeatureTest
18,0,A0_10,a,a,True,1110,3,15208,singleFeatureTest
19,0,T0_65,t,b,False,3160,3,15208,singleFeatureTest
20,0,B0_50,b,a,False,10111,3,15208,singleFeatureTest
0,0,B0_60,b,b,True,1896,3,15213,singleFeatureTest
1,0,T0_70,t,b,False,1183,3,15213,singleFeatureTest
2,0,A0_20,a,b,False,702,3,15213,singleFeatureTest
3,0,T0_65,t,b,False,774,3,15213,singleFeatureTest
4,0,A0_40,a,b,False,600,3,15213,singleFeatureTest
5,0,A0_10,a,b,False,670,3,15213,singleFeatureTest
6,0,T0_50,t,b,False,614,3,15213,singleFeatureTest
7,0,B0_70,b,b,True,716,3,15213,singleFeatureTest
8,0,B0_80,b,b,True,679,3,15213,singleFeatureTest
9,0,B0_55,b,b,True,681,3,15213,singleFeatureTest
10,0,A0_20,a,a,True,958,3,15213,singleFeatureTest
11,0,T0_60,t,b,False,879,3,15213,singleFeatureTest
12,0,B0_90,b,b,True,901,3,15213,singleFeatureTest
13,0,A0_00,a,b,False,777,3,15213,singleFeatureTest
14,0,A0_30,a,b,False,668,3,15213,singleFeatureTest
15,0,T0_40,t,a,False,988,3,15213,singleFeatureTest
16,0,B0_80,b,b,True,934,3,15213,singleFeatureTest
17,0,B0_40,b,b,True,1470,3,15213,singleFeatureTest
18,0,A0_45,a,b,False,1029,3,15213,singleFeatureTest
19,0,A0_50,a,b,False,846,3,15213,singleFeatureTest
20,0,B0_50,b,b,True,708,3,15213,singleFeatureTest
0,0,T0_70,t,b,False,5452,3,15224,singleFeatureTest
1,0,A0_00,a,a,True,1741,3,15224,singleFeatureTest
2,0,A0_20,a,a,True,1815,3,15224,singleFeatureTest
3,0,B0_80,b,b,True,1140,3,15224,singleFeatureTest
4,0,T0_65,t,b,False,4109,3,15224,singleFeatureTest
5,0,B0_60,b,a,False,7932,3,15224,singleFeatureTest
6,0,B0_40,b,a,False,1831,3,15224,singleFeatureTest
7,0,A0_20,a,a,True,1250,3,15224,singleFeatureTest
8,0,B0_55,b,b,True,1693,3,15224,singleFeatureTest
9,0,A0_10,a,a,True,1511,3,15224,singleFeatureTest
10,0,A0_50,a,b,False,1219,3,15224,singleFeatureTest
11,0,A0_30,a,a,True,775,3,15224,singleFeatureTest
12,0,T0_40,t,b,False,1786,3,15224,singleFeatureTest
13,0,B0_90,b,b,True,1187,3,15224,singleFeatureTest
14,0,B0_50,b,b,True,1610,3,15224,singleFeatureTest
15,0,T0_50,t,b,False,1733,3,15224,singleFeatureTest
16,0,B0_70,b,b,True,1577,3,15224,singleFeatureTest
17,0,A0_40,a,a,True,1331,3,15224,singleFeatureTest
18,0,T0_60,t,b,False,1541,3,15224,singleFeatureTest
19,0,B0_80,b,b,True,1725,3,15224,singleFeatureTest
20,0,A0_45,a,a,True,929,3,15224,singleFeatureTest
0,0,A0_40,a,a,True,2569,3,15229,singleFeatureTest
1,0,T0_65,t,b,False,1937,3,15229,singleFeatureTest
2,0,A0_00,a,b,False,3112,3,15229,singleFeatureTest
3,0,B0_80,b,b,True,1594,3,15229,singleFeatureTest
4,0,A0_20,a,b,False,3062,3,15229,singleFeatureTest
5,0,A0_20,a,a,True,1565,3,15229,singleFeatureTest
6,0,T0_60,t,b,False,1253,3,15229,singleFeatureTest
7,0,B0_90,b,b,True,1834,3,15229,singleFeatureTest
8,0,B0_80,b,b,True,1021,3,15229,singleFeatureTest
9,0,A0_30,a,b,False,6388,3,15229,singleFeatureTest
10,0,B0_55,b,a,False,2464,3,15229,singleFeatureTest
11,0,A0_50,a,a,True,1777,3,15229,singleFeatureTest
12,0,T0_70,t,b,False,1038,3,15229,singleFeatureTest
13,0,A0_10,a,b,False,1500,3,15229,singleFeatureTest
14,0,T0_50,t,a,False,1576,3,15229,singleFeatureTest
15,0,B0_60,b,b,True,1334,3,15229,singleFeatureTest
16,0,T0_40,t,a,False,1459,3,15229,singleFeatureTest
17,0,B0_70,b,a,False,5732,3,15229,singleFeatureTest
18,0,B0_50,b,b,True,3682,3,15229,singleFeatureTest
19,0,A0_45,a,a,True,1054,3,15229,singleFeatureTest
20,0,B0_40,b,b,True,3792,3,15229,singleFeatureTest
0,0,B0_70,b,a,False,6418,3,15281,singleFeatureTest
1,0,B0_50,b,a,False,4499,3,15281,singleFeatureTest
2,0,A0_50,a,b,False,869,3,15281,singleFeatureTest
3,0,B0_40,b,b,True,2027,3,15281,singleFeatureTest
4,0,T0_70,t,b,False,2880,3,15281,singleFeatureTest
5,0,T0_50,t,a,False,2452,3,15281,singleFeatureTest
6,0,A0_40,a,b,False,1444,3,15281,singleFeatureTest
7,0,B0_80,b,b,True,1277,3,15281,singleFeatureTest
8,0,A0_30,a,a,True,2850,3,15281,singleFeatureTest
9,0,T0_60,t,b,False,1854,3,15281,singleFeatureTest
10,0,A0_45,a,a,True,1462,3,15281,singleFeatureTest
11,0,A0_20,a,a,True,5005,3,15281,singleFeatureTest
12,0,A0_00,a,a,True,2165,3,15281,singleFeatureTest
13,0,A0_20,a,a,True,1165,3,15281,singleFeatureTest
14,0,T0_40,t,a,False,2620,3,15281,singleFeatureTest
15,0,B0_90,b,b,True,1112,3,15281,singleFeatureTest
16,0,B0_55,b,b,True,975,3,15281,singleFeatureTest
17,0,A0_10,a,a,True,3421,3,15281,singleFeatureTest
18,0,T0_65,t,b,False,937,3,15281,singleFeatureTest
19,0,B0_80,b,b,True,884,3,15281,singleFeatureTest
20,0,B0_60,b,b,True,872,3,15281,singleFeatureTest
0,0,B0_50,b,b,True,2430,3,15286,singleFeatureTest
1,0,A0_30,a,a,True,991,3,15286,singleFeatureTest
2,0,T0_65,t,b,False,3944,3,15286,singleFeatureTest
3,0,A0_00,a,a,True,915,3,15286,singleFeatureTest
4,0,T0_40,t,b,False,1357,3,15286,singleFeatureTest
5,0,A0_50,a,b,False,1354,3,15286,singleFeatureTest
6,0,B0_90,b,b,True,855,3,15286,singleFeatureTest
7,0,B0_70,b,b,True,1542,3,15286,singleFeatureTest
8,0,A0_40,a,a,True,734,3,15286,singleFeatureTest
9,0,B0_80,b,b,True,853,3,15286,singleFeatureTest
10,0,B0_40,b,b,True,909,3,15286,singleFeatureTest
11,0,T0_50,t,b,False,1543,3,15286,singleFeatureTest
12,0,T0_70,t,b,False,1134,3,15286,singleFeatureTest
13,0,B0_55,b,b,True,933,3,15286,singleFeatureTest
14,0,T0_60,t,b,False,1526,3,15286,singleFeatureTest
15,0,A0_20,a,b,False,1205,3,15286,singleFeatureTest
16,0,A0_10,a,a,True,765,3,15286,singleFeatureTest
17,0,B0_60,b,b,True,1439,3,15286,singleFeatureTest
18,0,B0_80,b,b,True,1718,3,15286,singleFeatureTest
19,0,A0_45,a,b,False,1255,3,15286,singleFeatureTest
20,0,A0_20,a,b,False,733,3,15286,singleFeatureTest
0,0,B0_70,b,b,True,5220,3,15291,singleFeatureTest
1,0,A0_40,a,a,True,2555,3,15291,singleFeatureTest
2,0,A0_00,a,a,True,1234,3,15291,singleFeatureTest
3,0,B0_80,b,b,True,2630,3,15291,singleFeatureTest
4,0,T0_40,t,b,False,2079,3,15291,singleFeatureTest
5,0,T0_65,t,b,False,1430,3,15291,singleFeatureTest
6,0,T0_70,t,b,False,1386,3,15291,singleFeatureTest
7,0,A0_30,a,a,True,1481,3,15291,singleFeatureTest
8,0,B0_60,b,b,True,1334,3,15291,singleFeatureTest
9,0,A0_50,a,a,True,1349,3,15291,singleFeatureTest
10,0,B0_90,b,b,True,933,3,15291,singleFeatureTest
11,0,B0_80,b,b,True,2849,3,15291,singleFeatureTest
12,0,A0_10,a,a,True,1107,3,15291,singleFeatureTest
13,0,T0_50,t,b,False,965,3,15291,singleFeatureTest
14,0,T0_60,t,a,False,933,3,15291,singleFeatureTest
15,0,B0_40,b,a,False,822,3,15291,singleFeatureTest
16,0,A0_45,a,b,False,2466,3,15291,singleFeatureTest
17,0,B0_55,b,a,False,1317,3,15291,singleFeatureTest
18,0,A0_20,a,b,False,1150,3,15291,singleFeatureTest
19,0,A0_20,a,a,True,792,3,15291,singleFeatureTest
20,0,B0_50,b,b,True,6584,3,15291,singleFeatureTest
0,0,T0_50,t,b,False,2818,3,15296,singleFeatureTest
1,0,A0_00,a,a,True,2547,3,15296,singleFeatureTest
2,0,A0_40,a,a,True,3198,3,15296,singleFeatureTest
3,0,B0_70,b,b,True,1053,3,15296,singleFeatureTest
4,0,T0_65,t,b,False,2669,3,15296,singleFeatureTest
5,0,B0_90,b,b,True,1404,3,15296,singleFeatureTest
6,0,T0_70,t,b,False,1141,3,15296,singleFeatureTest
7,0,T0_40,t,b,False,3769,3,15296,singleFeatureTest
8,0,B0_40,b,a,False,3134,3,15296,singleFeatureTest
9,0,A0_30,a,a,True,1384,3,15296,singleFeatureTest
10,0,A0_20,a,a,True,1189,3,15296,singleFeatureTest
11,0,T0_60,t,a,False,3841,3,15296,singleFeatureTest
12,0,B0_80,b,b,True,1445,3,15296,singleFeatureTest
13,0,A0_10,a,a,True,1214,3,15296,singleFeatureTest
14,0,A0_20,a,b,False,1338,3,15296,singleFeatureTest
15,0,A0_50,a,a,True,942,3,15296,singleFeatureTest
16,0,B0_60,b,b,True,1630,3,15296,singleFeatureTest
17,0,A0_45,a,b,False,2282,3,15296,singleFeatureTest
18,0,B0_80,b,b,True,2259,3,15296,singleFeatureTest
19,0,B0_55,b,a,False,1320,3,15296,singleFeatureTest
20,0,B0_50,b,b,True,1227,3,15296,singleFeatureTest
0,0,T0_40,t,a,False,2570,3,15301,singleFeatureTest
1,0,T0_65,t,b,False,1223,3,15301,singleFeatureTest
2,0,A0_50,a,b,False,2526,3,15301,singleFeatureTest
3,0,B0_90,b,a,False,1142,3,15301,singleFeatureTest
4,0,A0_20,a,a,True,982,3,15301,singleFeatureTest
5,0,B0_60,b,a,False,2334,3,15301,singleFeatureTest
6,0,B0_70,b,b,True,1407,3,15301,singleFeatureTest
7,0,A0_45,a,a,True,2383,3,15301,singleFeatureTest
8,0,B0_50,b,b,True,1316,3,15301,singleFeatureTest
9,0,A0_30,a,a,True,1290,3,15301,singleFeatureTest
10,0,A0_00,a,a,True,846,3,15301,singleFeatureTest
11,0,T0_60,t,b,False,1423,3,15301,singleFeatureTest
12,0,B0_40,b,b,True,953,3,15301,singleFeatureTest
13,0,B0_80,b,b,True,790,3,15301,singleFeatureTest
14,0,A0_40,a,b,False,1002,3,15301,singleFeatureTest
15,0,A0_20,a,a,True,1374,3,15301,singleFeatureTest
16,0,T0_70,t,b,False,2908,3,15301,singleFeatureTest
17,0,A0_10,a,a,True,1501,3,15301,singleFeatureTest
18,0,B0_80,b,b,True,1059,3,15301,singleFeatureTest
19,0,T0_50,t,b,False,1347,3,15301,singleFeatureTest
20,0,B0_55,b,b,True,718,3,15301,singleFeatureTest
0,0,B0_55,b,b,True,1864,3,15306,singleFeatureTest
1,0,A0_30,a,a,True,8157,3,15306,singleFeatureTest
2,0,A0_40,a,a,True,1671,3,15306,singleFeatureTest
3,0,T0_60,t,b,False,1180,3,15306,singleFeatureTest
4,0,B0_70,b,b,True,900,3,15306,singleFeatureTest
5,0,A0_20,a,a,True,990,3,15306,singleFeatureTest
6,0,A0_10,a,a,True,845,3,15306,singleFeatureTest
7,0,A0_20,a,b,False,971,3,15306,singleFeatureTest
8,0,T0_70,t,b,False,844,3,15306,singleFeatureTest
9,0,T0_50,t,b,False,786,3,15306,singleFeatureTest
10,0,B0_80,b,b,True,1306,3,15306,singleFeatureTest
11,0,T0_40,t,b,False,668,3,15306,singleFeatureTest
12,0,B0_60,b,b,True,1097,3,15306,singleFeatureTest
13,0,A0_50,a,a,True,1805,3,15306,singleFeatureTest
14,0,A0_00,a,a,True,683,3,15306,singleFeatureTest
15,0,T0_65,t,b,False,939,3,15306,singleFeatureTest
16,0,B0_80,b,b,True,830,3,15306,singleFeatureTest
17,0,B0_40,b,a,False,5680,3,15306,singleFeatureTest
18,0,B0_90,b,b,True,896,3,15306,singleFeatureTest
19,0,B0_50,b,a,False,2092,3,15306,singleFeatureTest
20,0,A0_45,a,b,False,854,3,15306,singleFeatureTest
0,0,B0_70,b,b,True,2135,3,14919,singleFeatureTest
1,0,T0_70,t,a,False,3187,3,14919,singleFeatureTest
2,0,T0_65,t,a,False,3643,3,14919,singleFeatureTest
3,0,B0_90,b,b,True,2022,3,14919,singleFeatureTest
4,0,B0_80,b,b,True,1950,3,14919,singleFeatureTest
5,0,A0_00,a,a,True,1706,3,14919,singleFeatureTest
6,0,A0_40,a,a,True,1909,3,14919,singleFeatureTest
7,0,T0_60,t,b,False,1374,3,14919,singleFeatureTest
8,0,B0_80,b,b,True,1489,3,14919,singleFeatureTest
9,0,B0_50,b,a,False,1530,3,14919,singleFeatureTest
10,0,A0_45,a,b,False,1141,3,14919,singleFeatureTest
11,0,B0_40,b,a,False,1486,3,14919,singleFeatureTest
12,0,A0_10,a,a,True,1157,3,14919,singleFeatureTest
13,0,T0_40,t,b,False,1117,3,14919,singleFeatureTest
14,0,A0_30,a,a,True,1198,3,14919,singleFeatureTest
15,0,T0_50,t,b,False,1373,3,14919,singleFeatureTest
16,0,B0_55,b,b,True,1385,3,14919,singleFeatureTest
17,0,A0_20,a,b,False,1089,3,14919,singleFeatureTest
18,0,A0_20,a,a,True,5060,3,14919,singleFeatureTest
19,0,B0_60,b,b,True,1256,3,14919,singleFeatureTest
20,0,A0_50,a,b,False,1232,3,14919,singleFeatureTest
0,0,A0_30,a,a,True,4501,3,14924,singleFeatureTest
1,0,B0_50,b,b,True,7444,3,14924,singleFeatureTest
2,0,B0_80,b,b,True,1470,3,14924,singleFeatureTest
3,0,B0_70,b,b,True,1617,3,14924,singleFeatureTest
4,0,A0_20,a,a,True,1095,3,14924,singleFeatureTest
5,0,T0_70,t,b,False,1875,3,14924,singleFeatureTest
6,0,A0_20,a,a,True,2615,3,14924,singleFeatureTest
7,0,A0_50,a,b,False,1770,3,14924,singleFeatureTest
8,0,B0_80,b,b,True,1320,3,14924,singleFeatureTest
9,0,T0_65,t,b,False,833,3,14924,singleFeatureTest
10,0,T0_60,t,b,False,809,3,14924,singleFeatureTest
11,0,A0_40,a,a,True,1931,3,14924,singleFeatureTest
12,0,B0_90,b,b,True,1409,3,14924,singleFeatureTest
13,0,A0_00,a,a,True,1067,3,14924,singleFeatureTest
14,0,A0_10,a,a,True,850,3,14924,singleFeatureTest
15,0,B0_55,b,b,True,983,3,14924,singleFeatureTest
16,0,B0_40,b,b,True,1254,3,14924,singleFeatureTest
17,0,A0_45,a,b,False,1919,3,14924,singleFeatureTest
18,0,T0_40,t,b,False,950,3,14924,singleFeatureTest
19,0,B0_60,b,a,False,1089,3,14924,singleFeatureTest
20,0,T0_50,t,b,False,1633,3,14924,singleFeatureTest
0,0,T0_40,t,b,False,3184,3,14929,singleFeatureTest
1,0,B0_90,b,a,False,8553,3,14929,singleFeatureTest
2,0,B0_60,b,b,True,10675,3,14929,singleFeatureTest
3,0,B0_50,b,b,True,1398,3,14929,singleFeatureTest
4,0,B0_70,b,b,True,2626,3,14929,singleFeatureTest
5,0,B0_80,b,b,True,917,3,14929,singleFeatureTest
6,0,B0_40,b,a,False,1365,3,14929,singleFeatureTest
7,0,A0_00,a,a,True,1019,3,14929,singleFeatureTest
8,0,A0_45,a,b,False,3607,3,14929,singleFeatureTest
9,0,A0_50,a,b,False,2323,3,14929,singleFeatureTest
10,0,A0_20,a,a,True,877,3,14929,singleFeatureTest
11,0,B0_55,b,b,True,1092,3,14929,singleFeatureTest
12,0,T0_50,t,b,False,867,3,14929,singleFeatureTest
13,0,A0_40,a,a,True,1496,3,14929,singleFeatureTest
14,0,T0_70,t,b,False,917,3,14929,singleFeatureTest
15,0,A0_30,a,a,True,1766,3,14929,singleFeatureTest
16,0,T0_60,t,b,False,1107,3,14929,singleFeatureTest
17,0,T0_65,t,b,False,1255,3,14929,singleFeatureTest
18,0,A0_20,a,a,True,1671,3,14929,singleFeatureTest
19,0,B0_80,b,b,True,877,3,14929,singleFeatureTest
20,0,A0_10,a,b,False,1166,3,14929,singleFeatureTest
0,0,A0_45,a,b,False,6332,3,14934,singleFeatureTest
1,0,B0_80,b,b,True,5768,3,14934,singleFeatureTest
2,0,A0_10,a,a,True,934,3,14934,singleFeatureTest
3,0,T0_60,t,b,False,3914,3,14934,singleFeatureTest
4,0,B0_50,b,a,False,4303,3,14934,singleFeatureTest
5,0,T0_50,t,b,False,2380,3,14934,singleFeatureTest
6,0,A0_20,a,a,True,5396,3,14934,singleFeatureTest
7,0,A0_50,a,a,True,8585,3,14934,singleFeatureTest
8,0,B0_80,b,b,True,1532,3,14934,singleFeatureTest
9,0,T0_40,t,b,False,2103,3,14934,singleFeatureTest
10,0,A0_40,a,a,True,2963,3,14934,singleFeatureTest
11,0,A0_00,a,a,True,2286,3,14934,singleFeatureTest
12,0,B0_90,b,b,True,13929,3,14934,singleFeatureTest
13,0,T0_65,t,b,False,2201,3,14934,singleFeatureTest
14,0,B0_55,b,b,True,1502,3,14934,singleFeatureTest
15,0,A0_30,a,a,True,1614,3,14934,singleFeatureTest
16,0,B0_70,b,b,True,1451,3,14934,singleFeatureTest
17,0,T0_70,t,b,False,2763,3,14934,singleFeatureTest
18,0,A0_20,a,a,True,2019,3,14934,singleFeatureTest
19,0,B0_40,b,a,False,4014,3,14934,singleFeatureTest
20,0,B0_60,b,b,True,1164,3,14934,singleFeatureTest
0,0,A0_20,a,a,True,3554,3,14939,singleFeatureTest
1,0,A0_40,a,b,False,9739,3,14939,singleFeatureTest
2,0,T0_60,t,b,False,3589,3,14939,singleFeatureTest
3,0,A0_10,a,a,True,1351,3,14939,singleFeatureTest
4,0,B0_40,b,b,True,2882,3,14939,singleFeatureTest
5,0,T0_40,t,b,False,4820,3,14939,singleFeatureTest
6,0,A0_30,a,a,True,6243,3,14939,singleFeatureTest
7,0,A0_00,a,a,True,1105,3,14939,singleFeatureTest
8,0,B0_50,b,b,True,1490,3,14939,singleFeatureTest
9,0,T0_50,t,b,False,1520,3,14939,singleFeatureTest
10,0,B0_55,b,b,True,670,3,14939,singleFeatureTest
11,0,B0_80,b,b,True,474,3,14939,singleFeatureTest
12,0,T0_70,t,b,False,678,3,14939,singleFeatureTest
13,0,B0_70,b,a,False,1016,3,14939,singleFeatureTest
14,0,A0_20,a,b,False,680,3,14939,singleFeatureTest
15,0,B0_80,b,b,True,2055,3,14939,singleFeatureTest
16,0,A0_50,a,a,True,613,3,14939,singleFeatureTest
17,0,T0_65,t,b,False,1097,3,14939,singleFeatureTest
18,0,B0_60,b,b,True,8412,3,14939,singleFeatureTest
19,0,A0_45,a,b,False,948,3,14939,singleFeatureTest
20,0,B0_90,b,b,True,1408,3,14939,singleFeatureTest
0,0,A0_50,a,a,True,4661,3,14944,singleFeatureTest
1,0,T0_40,t,a,False,7235,3,14944,singleFeatureTest
2,0,B0_55,b,b,True,3414,3,14944,singleFeatureTest
3,0,B0_50,b,a,False,3743,3,14944,singleFeatureTest
4,0,A0_20,a,a,True,2449,3,14944,singleFeatureTest
5,0,A0_00,a,a,True,1940,3,14944,singleFeatureTest
6,0,A0_20,a,a,True,1455,3,14944,singleFeatureTest
7,0,B0_90,b,b,True,1164,3,14944,singleFeatureTest
8,0,A0_30,a,a,True,2403,3,14944,singleFeatureTest
9,0,B0_60,b,b,True,3464,3,14944,singleFeatureTest
10,0,B0_80,b,b,True,986,3,14944,singleFeatureTest
11,0,A0_45,a,a,True,1758,3,14944,singleFeatureTest
12,0,T0_50,t,b,False,3026,3,14944,singleFeatureTest
13,0,T0_70,t,b,False,1181,3,14944,singleFeatureTest
14,0,T0_65,t,b,False,2996,3,14944,singleFeatureTest
15,0,A0_10,a,a,True,1508,3,14944,singleFeatureTest
16,0,A0_40,a,a,True,1244,3,14944,singleFeatureTest
17,0,B0_40,b,a,False,1047,3,14944,singleFeatureTest
18,0,T0_60,t,b,False,4829,3,14944,singleFeatureTest
19,0,B0_70,b,b,True,1305,3,14944,singleFeatureTest
20,0,B0_80,b,b,True,1902,3,14944,singleFeatureTest
0,0,B0_90,b,b,True,3944,3,14949,singleFeatureTest
1,0,A0_20,a,a,True,2846,3,14949,singleFeatureTest
2,0,B0_60,b,b,True,4279,3,14949,singleFeatureTest
3,0,B0_80,b,b,True,1437,3,14949,singleFeatureTest
4,0,T0_40,t,b,False,7920,3,14949,singleFeatureTest
5,0,T0_50,t,b,False,2244,3,14949,singleFeatureTest
6,0,B0_55,b,b,True,1001,3,14949,singleFeatureTest
7,0,A0_20,a,a,True,1810,3,14949,singleFeatureTest
8,0,B0_80,b,b,True,1856,3,14949,singleFeatureTest
9,0,A0_30,a,a,True,2578,3,14949,singleFeatureTest
10,0,A0_40,a,a,True,3127,3,14949,singleFeatureTest
11,0,B0_70,b,b,True,983,3,14949,singleFeatureTest
12,0,T0_65,t,b,False,900,3,14949,singleFeatureTest
13,0,A0_10,a,a,True,1408,3,14949,singleFeatureTest
14,0,T0_60,t,b,False,1854,3,14949,singleFeatureTest
15,0,B0_50,b,a,False,2943,3,14949,singleFeatureTest
16,0,T0_70,t,b,False,1144,3,14949,singleFeatureTest
17,0,A0_45,a,b,False,821,3,14949,singleFeatureTest
18,0,A0_50,a,a,True,1309,3,14949,singleFeatureTest
19,0,A0_00,a,a,True,1081,3,14949,singleFeatureTest
20,0,B0_40,b,a,False,1271,3,14949,singleFeatureTest
0,0,A0_30,a,a,True,10377,3,14969,singleFeatureTest
1,0,B0_80,b,b,True,1022,3,14969,singleFeatureTest
2,0,B0_60,b,b,True,1577,3,14969,singleFeatureTest
3,0,B0_40,b,b,True,3569,3,14969,singleFeatureTest
4,0,A0_10,a,a,True,791,3,14969,singleFeatureTest
5,0,T0_70,t,a,False,3773,3,14969,singleFeatureTest
6,0,A0_50,a,b,False,1816,3,14969,singleFeatureTest
7,0,B0_55,b,a,False,1428,3,14969,singleFeatureTest
8,0,T0_50,t,a,False,1888,3,14969,singleFeatureTest
9,0,B0_50,b,b,True,1030,3,14969,singleFeatureTest
10,0,A0_45,a,a,True,776,3,14969,singleFeatureTest
11,0,B0_70,b,b,True,1438,3,14969,singleFeatureTest
12,0,B0_80,b,a,False,841,3,14969,singleFeatureTest
13,0,T0_60,t,a,False,936,3,14969,singleFeatureTest
14,0,A0_00,a,a,True,1256,3,14969,singleFeatureTest
15,0,A0_40,a,b,False,1005,3,14969,singleFeatureTest
16,0,A0_20,a,a,True,654,3,14969,singleFeatureTest
17,0,T0_65,t,a,False,859,3,14969,singleFeatureTest
18,0,A0_20,a,a,True,680,3,14969,singleFeatureTest
19,0,T0_40,t,a,False,597,3,14969,singleFeatureTest
20,0,B0_90,b,b,True,1121,3,14969,singleFeatureTest
0,0,B0_80,b,a,False,3589,3,14974,singleFeatureTest
1,0,B0_60,b,a,False,6888,3,14974,singleFeatureTest
2,0,T0_70,t,b,False,1849,3,14974,singleFeatureTest
3,0,T0_65,t,a,False,2669,3,14974,singleFeatureTest
4,0,B0_40,b,a,False,7533,3,14974,singleFeatureTest
5,0,T0_60,t,b,False,5908,3,14974,singleFeatureTest
6,0,A0_40,a,a,True,1125,3,14974,singleFeatureTest
7,0,A0_45,a,a,True,3454,3,14974,singleFeatureTest
8,0,B0_90,b,b,True,1159,3,14974,singleFeatureTest
9,0,A0_20,a,a,True,835,3,14974,singleFeatureTest
10,0,A0_30,a,a,True,2228,3,14974,singleFeatureTest
11,0,B0_55,b,b,True,2268,3,14974,singleFeatureTest
12,0,T0_40,t,a,False,789,3,14974,singleFeatureTest
13,0,A0_20,a,a,True,768,3,14974,singleFeatureTest
14,0,A0_10,a,a,True,1199,3,14974,singleFeatureTest
15,0,A0_00,a,a,True,618,3,14974,singleFeatureTest
16,0,B0_70,b,b,True,819,3,14974,singleFeatureTest
17,0,A0_50,a,b,False,773,3,14974,singleFeatureTest
18,0,T0_50,t,b,False,2551,3,14974,singleFeatureTest
19,0,B0_50,b,a,False,1170,3,14974,singleFeatureTest
20,0,B0_80,b,b,True,1709,3,14974,singleFeatureTest
0,0,B0_50,b,b,True,3498,3,14979,singleFeatureTest
1,0,A0_20,a,a,True,1195,3,14979,singleFeatureTest
2,0,B0_55,b,a,False,1872,3,14979,singleFeatureTest
3,0,A0_50,a,b,False,2380,3,14979,singleFeatureTest
4,0,T0_65,t,a,False,732,3,14979,singleFeatureTest
5,0,T0_60,t,a,False,845,3,14979,singleFeatureTest
6,0,A0_30,a,b,False,918,3,14979,singleFeatureTest
7,0,T0_50,t,a,False,647,3,14979,singleFeatureTest
8,0,B0_70,b,b,True,862,3,14979,singleFeatureTest
9,0,A0_20,a,a,True,3614,3,14979,singleFeatureTest
10,0,A0_40,a,b,False,1185,3,14979,singleFeatureTest
11,0,B0_80,b,b,True,852,3,14979,singleFeatureTest
12,0,B0_90,b,b,True,1053,3,14979,singleFeatureTest
13,0,T0_70,t,a,False,984,3,14979,singleFeatureTest
14,0,T0_40,t,a,False,992,3,14979,singleFeatureTest
15,0,B0_80,b,a,False,881,3,14979,singleFeatureTest
16,0,B0_60,b,b,True,927,3,14979,singleFeatureTest
17,0,B0_40,b,a,False,584,3,14979,singleFeatureTest
18,0,A0_45,a,a,True,1054,3,14979,singleFeatureTest
19,0,A0_10,a,a,True,1627,3,14979,singleFeatureTest
20,0,A0_00,a,a,True,694,3,14979,singleFeatureTest
0,0,A0_10,a,a,True,1922,3,14984,singleFeatureTest
1,0,B0_90,b,b,True,914,3,14984,singleFeatureTest
2,0,A0_40,a,b,False,1682,3,14984,singleFeatureTest
3,0,B0_55,b,b,True,2693,3,14984,singleFeatureTest
4,0,B0_50,b,b,True,2449,3,14984,singleFeatureTest
5,0,T0_70,t,b,False,908,3,14984,singleFeatureTest
6,0,B0_70,b,b,True,1134,3,14984,singleFeatureTest
7,0,B0_40,b,a,False,874,3,14984,singleFeatureTest
8,0,B0_80,b,b,True,724,3,14984,singleFeatureTest
9,0,A0_45,a,b,False,1158,3,14984,singleFeatureTest
10,0,A0_00,a,a,True,1015,3,14984,singleFeatureTest
11,0,A0_30,a,a,True,736,3,14984,singleFeatureTest
12,0,B0_60,b,b,True,756,3,14984,singleFeatureTest
13,0,T0_50,t,b,False,998,3,14984,singleFeatureTest
14,0,T0_65,t,b,False,878,3,14984,singleFeatureTest
15,0,A0_20,a,a,True,869,3,14984,singleFeatureTest
16,0,A0_20,a,b,False,685,3,14984,singleFeatureTest
17,0,B0_80,b,b,True,1070,3,14984,singleFeatureTest
18,0,T0_60,t,b,False,966,3,14984,singleFeatureTest
19,0,A0_50,a,b,False,2093,3,14984,singleFeatureTest
20,0,T0_40,t,b,False,1129,3,14984,singleFeatureTest
0,0,A0_30,a,b,False,4659,3,14989,singleFeatureTest
1,0,B0_70,b,b,True,1069,3,14989,singleFeatureTest
2,0,A0_20,a,b,False,1845,3,14989,singleFeatureTest
3,0,A0_45,a,b,False,894,3,14989,singleFeatureTest
4,0,B0_40,b,b,True,2580,3,14989,singleFeatureTest
5,0,B0_50,b,b,True,1503,3,14989,singleFeatureTest
6,0,B0_80,b,b,True,1413,3,14989,singleFeatureTest
7,0,B0_90,b,b,True,1025,3,14989,singleFeatureTest
8,0,T0_70,t,b,False,1219,3,14989,singleFeatureTest
9,0,B0_60,b,b,True,2409,3,14989,singleFeatureTest
10,0,B0_55,b,b,True,1589,3,14989,singleFeatureTest
11,0,B0_80,b,b,True,590,3,14989,singleFeatureTest
12,0,A0_00,a,a,True,846,3,14989,singleFeatureTest
13,0,T0_40,t,b,False,804,3,14989,singleFeatureTest
14,0,A0_40,a,b,False,844,3,14989,singleFeatureTest
15,0,A0_10,a,a,True,722,3,14989,singleFeatureTest
16,0,T0_60,t,b,False,928,3,14989,singleFeatureTest
17,0,T0_50,t,b,False,2213,3,14989,singleFeatureTest
18,0,A0_50,a,b,False,1093,3,14989,singleFeatureTest
19,0,T0_65,t,b,False,874,3,14989,singleFeatureTest
20,0,A0_20,a,a,True,817,3,14989,singleFeatureTest
0,0,A0_50,a,a,True,5210,4,15037,singleFeatureTest
1,0,B0_55,b,b,True,9151,4,15037,singleFeatureTest
2,0,B0_50,b,a,False,4122,4,15037,singleFeatureTest
3,0,B0_90,b,b,True,2643,4,15037,singleFeatureTest
4,0,A0_45,a,b,False,5945,4,15037,singleFeatureTest
5,0,B0_70,b,b,True,2563,4,15037,singleFeatureTest
6,0,B0_40,b,a,False,1519,4,15037,singleFeatureTest
7,0,A0_10,a,a,True,3470,4,15037,singleFeatureTest
8,0,T0_65,t,b,False,2905,4,15037,singleFeatureTest
9,0,A0_20,a,a,True,1257,4,15037,singleFeatureTest
10,0,A0_20,a,a,True,2669,4,15037,singleFeatureTest
11,0,T0_60,t,b,False,1530,4,15037,singleFeatureTest
12,0,T0_40,t,a,False,1372,4,15037,singleFeatureTest
13,0,T0_70,t,b,False,1770,4,15037,singleFeatureTest
14,0,B0_80,b,b,True,1143,4,15037,singleFeatureTest
15,0,B0_60,b,b,True,3005,4,15037,singleFeatureTest
16,0,A0_30,a,a,True,1162,4,15037,singleFeatureTest
17,0,B0_80,b,b,True,1296,4,15037,singleFeatureTest
18,0,A0_40,a,a,True,1092,4,15037,singleFeatureTest
19,0,T0_50,t,a,False,2007,4,15037,singleFeatureTest
20,0,A0_00,a,a,True,1754,4,15037,singleFeatureTest
0,0,T0_65,t,a,False,4204,4,15042,singleFeatureTest
1,0,A0_50,a,a,True,2208,4,15042,singleFeatureTest
2,0,B0_60,b,a,False,1158,4,15042,singleFeatureTest
3,0,A0_20,a,a,True,1310,4,15042,singleFeatureTest
4,0,A0_00,a,a,True,894,4,15042,singleFeatureTest
5,0,A0_45,a,b,False,2102,4,15042,singleFeatureTest
6,0,T0_60,t,a,False,998,4,15042,singleFeatureTest
7,0,B0_55,b,a,False,1510,4,15042,singleFeatureTest
8,0,T0_50,t,a,False,1153,4,15042,singleFeatureTest
9,0,A0_20,a,b,False,2315,4,15042,singleFeatureTest
10,0,T0_40,t,a,False,994,4,15042,singleFeatureTest
11,0,T0_70,t,b,False,2838,4,15042,singleFeatureTest
12,0,B0_80,b,b,True,1374,4,15042,singleFeatureTest
13,0,B0_50,b,a,False,1305,4,15042,singleFeatureTest
14,0,B0_40,b,a,False,1454,4,15042,singleFeatureTest
15,0,B0_80,b,b,True,1566,4,15042,singleFeatureTest
16,0,A0_10,a,a,True,1406,4,15042,singleFeatureTest
17,0,A0_30,a,a,True,1430,4,15042,singleFeatureTest
18,0,B0_70,b,b,True,1180,4,15042,singleFeatureTest
19,0,A0_40,a,a,True,1285,4,15042,singleFeatureTest
20,0,B0_90,b,b,True,937,4,15042,singleFeatureTest
0,0,A0_10,a,a,True,1586,4,15047,singleFeatureTest
1,0,B0_60,b,b,True,1494,4,15047,singleFeatureTest
2,0,B0_70,b,b,True,862,4,15047,singleFeatureTest
3,0,A0_40,a,a,True,1494,4,15047,singleFeatureTest
4,0,T0_60,t,b,False,8196,4,15047,singleFeatureTest
5,0,B0_80,b,b,True,1531,4,15047,singleFeatureTest
6,0,T0_65,t,b,False,5254,4,15047,singleFeatureTest
7,0,A0_20,a,a,True,1442,4,15047,singleFeatureTest
8,0,A0_45,a,b,False,1344,4,15047,singleFeatureTest
9,0,B0_40,b,a,False,953,4,15047,singleFeatureTest
10,0,B0_50,b,a,False,837,4,15047,singleFeatureTest
11,0,T0_70,t,b,False,1144,4,15047,singleFeatureTest
12,0,T0_50,t,b,False,872,4,15047,singleFeatureTest
13,0,B0_80,b,a,False,2267,4,15047,singleFeatureTest
14,0,A0_20,a,b,False,2778,4,15047,singleFeatureTest
15,0,A0_30,a,a,True,1203,4,15047,singleFeatureTest
16,0,B0_55,b,b,True,2198,4,15047,singleFeatureTest
17,0,T0_40,t,b,False,835,4,15047,singleFeatureTest
18,0,B0_90,b,b,True,1624,4,15047,singleFeatureTest
19,0,A0_50,a,a,True,2187,4,15047,singleFeatureTest
20,0,A0_00,a,a,True,889,4,15047,singleFeatureTest
0,0,A0_00,a,a,True,3386,4,15069,singleFeatureTest
1,0,A0_30,a,a,True,1622,4,15069,singleFeatureTest
2,0,A0_20,a,a,True,2839,4,15069,singleFeatureTest
3,0,A0_45,a,b,False,2366,4,15069,singleFeatureTest
4,0,A0_50,a,a,True,4985,4,15069,singleFeatureTest
5,0,B0_40,b,a,False,1836,4,15069,singleFeatureTest
6,0,A0_10,a,a,True,1059,4,15069,singleFeatureTest
7,0,T0_65,t,b,False,1151,4,15069,singleFeatureTest
8,0,T0_50,t,b,False,1259,4,15069,singleFeatureTest
9,0,T0_40,t,b,False,2877,4,15069,singleFeatureTest
10,0,T0_70,t,b,False,1055,4,15069,singleFeatureTest
11,0,B0_70,b,b,True,1278,4,15069,singleFeatureTest
12,0,B0_60,b,b,True,1638,4,15069,singleFeatureTest
13,0,B0_90,b,b,True,1021,4,15069,singleFeatureTest
14,0,A0_20,a,a,True,843,4,15069,singleFeatureTest
15,0,B0_80,b,b,True,1341,4,15069,singleFeatureTest
16,0,B0_55,b,b,True,1246,4,15069,singleFeatureTest
17,0,B0_50,b,a,False,5758,4,15069,singleFeatureTest
18,0,T0_60,t,b,False,1229,4,15069,singleFeatureTest
19,0,A0_40,a,a,True,1383,4,15069,singleFeatureTest
20,0,B0_80,b,b,True,1115,4,15069,singleFeatureTest
0,0,A0_50,a,b,False,4714,4,15084,singleFeatureTest
1,0,T0_65,t,b,False,2956,4,15084,singleFeatureTest
2,0,A0_20,a,a,True,4742,4,15084,singleFeatureTest
3,0,B0_70,b,b,True,1726,4,15084,singleFeatureTest
4,0,A0_30,a,a,True,1062,4,15084,singleFeatureTest
5,0,A0_10,a,a,True,894,4,15084,singleFeatureTest
6,0,T0_50,t,b,False,2300,4,15084,singleFeatureTest
7,0,B0_60,b,b,True,2838,4,15084,singleFeatureTest
8,0,B0_90,b,b,True,1053,4,15084,singleFeatureTest
9,0,T0_70,t,b,False,1811,4,15084,singleFeatureTest
10,0,B0_80,b,b,True,2773,4,15084,singleFeatureTest
11,0,B0_80,b,b,True,1612,4,15084,singleFeatureTest
12,0,T0_40,t,b,False,1928,4,15084,singleFeatureTest
13,0,B0_55,b,b,True,1662,4,15084,singleFeatureTest
14,0,T0_60,t,b,False,1046,4,15084,singleFeatureTest
15,0,B0_40,b,a,False,1821,4,15084,singleFeatureTest
16,0,A0_45,a,b,False,1844,4,15084,singleFeatureTest
17,0,A0_20,a,a,True,3661,4,15084,singleFeatureTest
18,0,A0_40,a,a,True,1790,4,15084,singleFeatureTest
19,0,A0_00,a,a,True,1006,4,15084,singleFeatureTest
20,0,B0_50,b,a,False,989,4,15084,singleFeatureTest
0,0,T0_50,t,b,False,9778,4,15089,singleFeatureTest
1,0,B0_55,b,b,True,4460,4,15089,singleFeatureTest
2,0,T0_65,t,b,False,4007,4,15089,singleFeatureTest
3,0,B0_80,b,b,True,2168,4,15089,singleFeatureTest
4,0,A0_00,a,a,True,1853,4,15089,singleFeatureTest
5,0,A0_40,a,b,False,2925,4,15089,singleFeatureTest
6,0,B0_90,b,b,True,3851,4,15089,singleFeatureTest
7,0,T0_70,t,b,False,2305,4,15089,singleFeatureTest
8,0,B0_40,b,a,False,2280,4,15089,singleFeatureTest
9,0,A0_10,a,a,True,1027,4,15089,singleFeatureTest
10,0,A0_20,a,a,True,3352,4,15089,singleFeatureTest
11,0,A0_50,a,b,False,3097,4,15089,singleFeatureTest
12,0,T0_40,t,b,False,4391,4,15089,singleFeatureTest
13,0,B0_50,b,b,True,2033,4,15089,singleFeatureTest
14,0,A0_20,a,a,True,988,4,15089,singleFeatureTest
15,0,B0_70,b,b,True,1799,4,15089,singleFeatureTest
16,0,A0_30,a,a,True,1148,4,15089,singleFeatureTest
17,0,B0_60,b,b,True,4582,4,15089,singleFeatureTest
18,0,A0_45,a,a,True,2262,4,15089,singleFeatureTest
19,0,B0_80,b,b,True,1435,4,15089,singleFeatureTest
20,0,T0_60,t,b,False,1911,4,15089,singleFeatureTest
0,0,B0_80,b,b,True,4822,4,15094,singleFeatureTest
1,0,T0_50,t,a,False,6473,4,15094,singleFeatureTest
2,0,B0_60,b,a,False,3607,4,15094,singleFeatureTest
3,0,T0_65,t,a,False,3773,4,15094,singleFeatureTest
4,0,T0_40,t,b,False,3743,4,15094,singleFeatureTest
5,0,A0_10,a,a,True,1337,4,15094,singleFeatureTest
6,0,B0_50,b,a,False,3461,4,15094,singleFeatureTest
7,0,B0_40,b,a,False,2687,4,15094,singleFeatureTest
8,0,A0_30,a,a,True,2021,4,15094,singleFeatureTest
9,0,T0_70,t,a,False,1694,4,15094,singleFeatureTest
10,0,A0_20,a,b,False,1399,4,15094,singleFeatureTest
11,0,A0_20,a,a,True,1479,4,15094,singleFeatureTest
12,0,B0_80,b,a,False,19398,4,15094,singleFeatureTest
13,0,B0_55,b,b,True,2152,4,15094,singleFeatureTest
14,0,B0_70,b,b,True,1161,4,15094,singleFeatureTest
15,0,A0_45,a,b,False,1984,4,15094,singleFeatureTest
16,0,A0_00,a,a,True,1658,4,15094,singleFeatureTest
17,0,A0_40,a,a,True,1611,4,15094,singleFeatureTest
18,0,T0_60,t,a,False,2507,4,15094,singleFeatureTest
19,0,A0_50,a,a,True,5725,4,15094,singleFeatureTest
20,0,B0_90,b,b,True,1607,4,15094,singleFeatureTest
0,0,B0_80,b,b,True,1874,4,15099,singleFeatureTest
1,0,T0_50,t,b,False,1830,4,15099,singleFeatureTest
2,0,T0_60,t,b,False,1201,4,15099,singleFeatureTest
3,0,A0_40,a,a,True,1374,4,15099,singleFeatureTest
4,0,A0_30,a,a,True,692,4,15099,singleFeatureTest
5,0,T0_40,t,b,False,1643,4,15099,singleFeatureTest
6,0,B0_70,b,b,True,1189,4,15099,singleFeatureTest
7,0,B0_50,b,b,True,630,4,15099,singleFeatureTest
8,0,A0_10,a,a,True,871,4,15099,singleFeatureTest
9,0,A0_20,a,a,True,635,4,15099,singleFeatureTest
10,0,A0_50,a,a,True,2434,4,15099,singleFeatureTest
11,0,B0_80,b,b,True,910,4,15099,singleFeatureTest
12,0,B0_40,b,a,False,903,4,15099,singleFeatureTest
13,0,T0_65,t,b,False,1881,4,15099,singleFeatureTest
14,0,B0_60,b,b,True,1783,4,15099,singleFeatureTest
15,0,B0_90,b,b,True,784,4,15099,singleFeatureTest
16,0,A0_00,a,a,True,746,4,15099,singleFeatureTest
17,0,A0_45,a,b,False,1311,4,15099,singleFeatureTest
18,0,T0_70,t,b,False,2128,4,15099,singleFeatureTest
19,0,A0_20,a,a,True,732,4,15099,singleFeatureTest
20,0,B0_55,b,b,True,2228,4,15099,singleFeatureTest
0,0,A0_20,a,a,True,4421,4,15104,singleFeatureTest
1,0,T0_60,t,b,False,2717,4,15104,singleFeatureTest
2,0,A0_40,a,a,True,3139,4,15104,singleFeatureTest
3,0,T0_40,t,a,False,2318,4,15104,singleFeatureTest
4,0,T0_50,t,b,False,2333,4,15104,singleFeatureTest
5,0,A0_50,a,a,True,14418,4,15104,singleFeatureTest
6,0,T0_70,t,b,False,1174,4,15104,singleFeatureTest
7,0,B0_70,b,b,True,1055,4,15104,singleFeatureTest
8,0,A0_10,a,a,True,1541,4,15104,singleFeatureTest
9,0,B0_60,b,a,False,5240,4,15104,singleFeatureTest
10,0,B0_90,b,b,True,957,4,15104,singleFeatureTest
11,0,B0_80,b,b,True,962,4,15104,singleFeatureTest
12,0,B0_50,b,a,False,2246,4,15104,singleFeatureTest
13,0,B0_80,b,b,True,1397,4,15104,singleFeatureTest
14,0,A0_00,a,a,True,1101,4,15104,singleFeatureTest
15,0,B0_40,b,a,False,6062,4,15104,singleFeatureTest
16,0,A0_45,a,a,True,3616,4,15104,singleFeatureTest
17,0,B0_55,b,b,True,1279,4,15104,singleFeatureTest
18,0,A0_30,a,a,True,1142,4,15104,singleFeatureTest
19,0,A0_20,a,a,True,1470,4,15104,singleFeatureTest
20,0,T0_65,t,b,False,974,4,15104,singleFeatureTest
0,0,B0_90,b,b,True,2129,4,15109,singleFeatureTest
1,0,B0_70,b,a,False,1022,4,15109,singleFeatureTest
2,0,B0_80,b,a,False,1661,4,15109,singleFeatureTest
3,0,T0_40,t,b,False,2356,4,15109,singleFeatureTest
4,0,T0_50,t,a,False,933,4,15109,singleFeatureTest
5,0,A0_20,a,a,True,1373,4,15109,singleFeatureTest
6,0,B0_40,b,a,False,936,4,15109,singleFeatureTest
7,0,T0_60,t,b,False,1421,4,15109,singleFeatureTest
8,0,A0_30,a,a,True,672,4,15109,singleFeatureTest
9,0,A0_20,a,b,False,2638,4,15109,singleFeatureTest
10,0,A0_45,a,a,True,989,4,15109,singleFeatureTest
11,0,B0_80,b,b,True,1767,4,15109,singleFeatureTest
12,0,T0_70,t,b,False,3686,4,15109,singleFeatureTest
13,0,B0_60,b,a,False,1112,4,15109,singleFeatureTest
14,0,A0_50,a,a,True,847,4,15109,singleFeatureTest
15,0,B0_55,b,b,True,2072,4,15109,singleFeatureTest
16,0,A0_40,a,a,True,1023,4,15109,singleFeatureTest
17,0,T0_65,t,b,False,1070,4,15109,singleFeatureTest
18,0,A0_10,a,a,True,574,4,15109,singleFeatureTest
19,0,A0_00,a,a,True,774,4,15109,singleFeatureTest
20,0,B0_50,b,a,False,1728,4,15109,singleFeatureTest
0,0,B0_50,b,b,True,3582,4,15114,singleFeatureTest
1,0,B0_80,b,b,True,866,4,15114,singleFeatureTest
2,0,A0_10,a,a,True,753,4,15114,singleFeatureTest
3,0,A0_20,a,a,True,939,4,15114,singleFeatureTest
4,0,A0_20,a,b,False,3048,4,15114,singleFeatureTest
5,0,T0_50,t,b,False,1222,4,15114,singleFeatureTest
6,0,A0_45,a,a,True,1225,4,15114,singleFeatureTest
7,0,B0_60,b,b,True,1584,4,15114,singleFeatureTest
8,0,B0_40,b,a,False,1263,4,15114,singleFeatureTest
9,0,A0_50,a,b,False,1069,4,15114,singleFeatureTest
10,0,T0_40,t,a,False,1301,4,15114,singleFeatureTest
11,0,B0_80,b,b,True,1154,4,15114,singleFeatureTest
12,0,T0_70,t,b,False,1120,4,15114,singleFeatureTest
13,0,B0_55,b,b,True,1097,4,15114,singleFeatureTest
14,0,B0_70,b,b,True,1646,4,15114,singleFeatureTest
15,0,T0_60,t,b,False,3242,4,15114,singleFeatureTest
16,0,T0_65,t,b,False,678,4,15114,singleFeatureTest
17,0,B0_90,b,b,True,1195,4,15114,singleFeatureTest
18,0,A0_30,a,a,True,1109,4,15114,singleFeatureTest
19,0,A0_00,a,a,True,863,4,15114,singleFeatureTest
20,0,A0_40,a,a,True,1062,4,15114,singleFeatureTest
0,0,B0_70,b,a,False,5276,4,15119,singleFeatureTest
1,0,T0_40,t,b,False,1461,4,15119,singleFeatureTest
2,0,T0_65,t,a,False,4479,4,15119,singleFeatureTest
3,0,B0_60,b,a,False,2273,4,15119,singleFeatureTest
4,0,B0_80,b,b,True,3055,4,15119,singleFeatureTest
5,0,A0_45,a,a,True,2613,4,15119,singleFeatureTest
6,0,B0_90,b,b,True,1800,4,15119,singleFeatureTest
7,0,T0_50,t,b,False,3286,4,15119,singleFeatureTest
8,0,T0_60,t,a,False,1485,4,15119,singleFeatureTest
9,0,A0_20,a,b,False,1305,4,15119,singleFeatureTest
10,0,B0_50,b,a,False,1080,4,15119,singleFeatureTest
11,0,B0_80,b,a,False,4303,4,15119,singleFeatureTest
12,0,B0_40,b,a,False,1389,4,15119,singleFeatureTest
13,0,A0_50,a,b,False,1670,4,15119,singleFeatureTest
14,0,T0_70,t,b,False,4755,4,15119,singleFeatureTest
15,0,A0_40,a,a,True,1185,4,15119,singleFeatureTest
16,0,A0_30,a,a,True,846,4,15119,singleFeatureTest
17,0,A0_10,a,a,True,985,4,15119,singleFeatureTest
18,0,A0_20,a,a,True,776,4,15119,singleFeatureTest
19,0,A0_00,a,a,True,1207,4,15119,singleFeatureTest
20,0,B0_55,b,b,True,1293,4,15119,singleFeatureTest
0,0,B0_40,b,a,False,6643,4,15124,singleFeatureTest
1,0,A0_40,a,a,True,732,4,15124,singleFeatureTest
2,0,B0_90,b,b,True,1158,4,15124,singleFeatureTest
3,0,T0_65,t,b,False,1714,4,15124,singleFeatureTest
4,0,A0_20,a,b,False,1142,4,15124,singleFeatureTest
5,0,T0_60,t,b,False,1031,4,15124,singleFeatureTest
6,0,B0_55,b,b,True,958,4,15124,singleFeatureTest
7,0,A0_50,a,a,True,1030,4,15124,singleFeatureTest
8,0,T0_40,t,b,False,861,4,15124,singleFeatureTest
9,0,A0_30,a,a,True,981,4,15124,singleFeatureTest
10,0,A0_00,a,a,True,1014,4,15124,singleFeatureTest
11,0,A0_10,a,a,True,693,4,15124,singleFeatureTest
12,0,B0_80,b,a,False,2134,4,15124,singleFeatureTest
13,0,T0_70,t,b,False,927,4,15124,singleFeatureTest
14,0,B0_80,b,b,True,613,4,15124,singleFeatureTest
15,0,B0_70,b,b,True,613,4,15124,singleFeatureTest
16,0,B0_60,b,b,True,766,4,15124,singleFeatureTest
17,0,T0_50,t,a,False,1045,4,15124,singleFeatureTest
18,0,A0_45,a,a,True,973,4,15124,singleFeatureTest
19,0,A0_20,a,a,True,1806,4,15124,singleFeatureTest
20,0,B0_50,b,b,True,934,4,15124,singleFeatureTest
0,0,B0_50,b,a,False,7267,4,15129,singleFeatureTest
1,0,B0_55,b,a,False,4781,4,15129,singleFeatureTest
2,0,B0_40,b,b,True,4426,4,15129,singleFeatureTest
3,0,B0_80,b,b,True,2321,4,15129,singleFeatureTest
4,0,T0_60,t,a,False,1283,4,15129,singleFeatureTest
5,0,A0_30,a,a,True,1556,4,15129,singleFeatureTest
6,0,T0_65,t,a,False,1199,4,15129,singleFeatureTest
7,0,B0_70,b,b,True,6983,4,15129,singleFeatureTest
8,0,A0_20,a,a,True,1103,4,15129,singleFeatureTest
9,0,A0_40,a,a,True,2201,4,15129,singleFeatureTest
10,0,A0_00,a,a,True,1082,4,15129,singleFeatureTest
11,0,A0_45,a,a,True,1256,4,15129,singleFeatureTest
12,0,A0_10,a,a,True,1046,4,15129,singleFeatureTest
13,0,T0_40,t,a,False,1002,4,15129,singleFeatureTest
14,0,T0_70,t,a,False,4092,4,15129,singleFeatureTest
15,0,A0_20,a,a,True,1270,4,15129,singleFeatureTest
16,0,T0_50,t,a,False,966,4,15129,singleFeatureTest
17,0,B0_60,b,a,False,4426,4,15129,singleFeatureTest
18,0,B0_90,b,b,True,963,4,15129,singleFeatureTest
19,0,B0_80,b,b,True,1805,4,15129,singleFeatureTest
20,0,A0_50,a,a,True,3482,4,15129,singleFeatureTest
0,0,A0_00,a,a,True,2542,4,15134,singleFeatureTest
1,0,A0_20,a,b,False,2206,4,15134,singleFeatureTest
2,0,B0_90,b,b,True,1615,4,15134,singleFeatureTest
3,0,B0_40,b,b,True,3326,4,15134,singleFeatureTest
4,0,B0_50,b,b,True,1205,4,15134,singleFeatureTest
5,0,B0_60,b,b,True,1317,4,15134,singleFeatureTest
6,0,B0_80,b,b,True,2397,4,15134,singleFeatureTest
7,0,A0_20,a,a,True,2376,4,15134,singleFeatureTest
8,0,T0_65,t,b,False,1054,4,15134,singleFeatureTest
9,0,A0_30,a,a,True,1812,4,15134,singleFeatureTest
10,0,T0_60,t,b,False,1141,4,15134,singleFeatureTest
11,0,A0_10,a,a,True,1191,4,15134,singleFeatureTest
12,0,T0_50,t,b,False,1254,4,15134,singleFeatureTest
13,0,B0_55,b,b,True,847,4,15134,singleFeatureTest
14,0,A0_40,a,a,True,1973,4,15134,singleFeatureTest
15,0,T0_70,t,b,False,903,4,15134,singleFeatureTest
16,0,A0_45,a,b,False,957,4,15134,singleFeatureTest
17,0,B0_80,b,b,True,1614,4,15134,singleFeatureTest
18,0,T0_40,t,b,False,1996,4,15134,singleFeatureTest
19,0,A0_50,a,a,True,3774,4,15134,singleFeatureTest
20,0,B0_70,b,b,True,1246,4,15134,singleFeatureTest
0,0,A0_50,a,b,False,3486,4,15139,singleFeatureTest
1,0,A0_20,a,b,False,4750,4,15139,singleFeatureTest
2,0,T0_50,t,b,False,662,4,15139,singleFeatureTest
3,0,A0_10,a,a,True,8309,4,15139,singleFeatureTest
4,0,A0_30,a,b,False,990,4,15139,singleFeatureTest
5,0,T0_65,t,b,False,1367,4,15139,singleFeatureTest
6,0,A0_45,a,b,False,1146,4,15139,singleFeatureTest
7,0,B0_50,b,b,True,816,4,15139,singleFeatureTest
8,0,A0_20,a,b,False,426,4,15139,singleFeatureTest
9,0,B0_90,b,b,True,822,4,15139,singleFeatureTest
10,0,B0_80,b,b,True,1871,4,15139,singleFeatureTest
11,0,A0_40,a,b,False,686,4,15139,singleFeatureTest
12,0,B0_60,b,b,True,658,4,15139,singleFeatureTest
13,0,B0_55,b,b,True,974,4,15139,singleFeatureTest
14,0,B0_80,b,b,True,671,4,15139,singleFeatureTest
15,0,B0_70,b,b,True,537,4,15139,singleFeatureTest
16,0,A0_00,a,a,True,1039,4,15139,singleFeatureTest
17,0,T0_60,t,b,False,917,4,15139,singleFeatureTest
18,0,T0_40,t,b,False,736,4,15139,singleFeatureTest
19,0,T0_70,t,b,False,822,4,15139,singleFeatureTest
20,0,B0_40,b,b,True,887,4,15139,singleFeatureTest
0,0,B0_90,b,b,True,5556,4,15144,singleFeatureTest
1,0,A0_45,a,b,False,4054,4,15144,singleFeatureTest
2,0,A0_40,a,a,True,1001,4,15144,singleFeatureTest
3,0,T0_70,t,b,False,1569,4,15144,singleFeatureTest
4,0,B0_70,b,a,False,2030,4,15144,singleFeatureTest
5,0,A0_50,a,a,True,838,4,15144,singleFeatureTest
6,0,A0_10,a,a,True,868,4,15144,singleFeatureTest
7,0,A0_00,a,a,True,631,4,15144,singleFeatureTest
8,0,B0_40,b,a,False,688,4,15144,singleFeatureTest
9,0,A0_20,a,b,False,1780,4,15144,singleFeatureTest
10,0,B0_80,b,b,True,2057,4,15144,singleFeatureTest
11,0,T0_60,t,b,False,1171,4,15144,singleFeatureTest
12,0,B0_80,b,b,True,2827,4,15144,singleFeatureTest
13,0,T0_65,t,b,False,1234,4,15144,singleFeatureTest
14,0,B0_55,b,b,True,672,4,15144,singleFeatureTest
15,0,A0_20,a,a,True,840,4,15144,singleFeatureTest
16,0,T0_40,t,b,False,940,4,15144,singleFeatureTest
17,0,B0_50,b,a,False,2075,4,15144,singleFeatureTest
18,0,B0_60,b,a,False,641,4,15144,singleFeatureTest
19,0,T0_50,t,b,False,888,4,15144,singleFeatureTest
20,0,A0_30,a,a,True,814,4,15144,singleFeatureTest
0,0,A0_20,a,b,False,5145,4,15149,singleFeatureTest
1,0,T0_40,t,b,False,1157,4,15149,singleFeatureTest
2,0,T0_65,t,b,False,1587,4,15149,singleFeatureTest
3,0,A0_20,a,a,True,2942,4,15149,singleFeatureTest
4,0,B0_90,b,b,True,1421,4,15149,singleFeatureTest
5,0,T0_70,t,b,False,1097,4,15149,singleFeatureTest
6,0,A0_10,a,a,True,1086,4,15149,singleFeatureTest
7,0,A0_45,a,b,False,1150,4,15149,singleFeatureTest
8,0,A0_30,a,a,True,3500,4,15149,singleFeatureTest
9,0,T0_60,t,b,False,1040,4,15149,singleFeatureTest
10,0,B0_40,b,a,False,882,4,15149,singleFeatureTest
11,0,B0_55,b,b,True,1117,4,15149,singleFeatureTest
12,0,B0_50,b,b,True,1296,4,15149,singleFeatureTest
13,0,A0_00,a,a,True,1145,4,15149,singleFeatureTest
14,0,A0_40,a,a,True,2112,4,15149,singleFeatureTest
15,0,B0_80,b,b,True,1072,4,15149,singleFeatureTest
16,0,T0_50,t,b,False,823,4,15149,singleFeatureTest
17,0,B0_60,b,b,True,981,4,15149,singleFeatureTest
18,0,B0_70,b,b,True,641,4,15149,singleFeatureTest
19,0,A0_50,a,b,False,613,4,15149,singleFeatureTest
20,0,B0_80,b,b,True,727,4,15149,singleFeatureTest
0,0,B0_40,b,a,False,3504,4,15154,singleFeatureTest
1,0,A0_40,a,a,True,3389,4,15154,singleFeatureTest
2,0,B0_80,b,b,True,2602,4,15154,singleFeatureTest
3,0,A0_10,a,a,True,1081,4,15154,singleFeatureTest
4,0,A0_20,a,a,True,863,4,15154,singleFeatureTest
5,0,T0_70,t,b,False,875,4,15154,singleFeatureTest
6,0,B0_70,b,b,True,1378,4,15154,singleFeatureTest
7,0,B0_60,b,b,True,2902,4,15154,singleFeatureTest
8,0,T0_50,t,b,False,1078,4,15154,singleFeatureTest
9,0,T0_40,t,b,False,558,4,15154,singleFeatureTest
10,0,A0_20,a,b,False,518,4,15154,singleFeatureTest
11,0,B0_80,b,b,True,969,4,15154,singleFeatureTest
12,0,B0_90,b,b,True,478,4,15154,singleFeatureTest
13,0,T0_65,t,b,False,605,4,15154,singleFeatureTest
14,0,B0_50,b,b,True,614,4,15154,singleFeatureTest
15,0,A0_00,a,a,True,671,4,15154,singleFeatureTest
16,0,A0_45,a,b,False,846,4,15154,singleFeatureTest
17,0,A0_50,a,a,True,886,4,15154,singleFeatureTest
18,0,T0_60,t,b,False,774,4,15154,singleFeatureTest
19,0,B0_55,b,b,True,762,4,15154,singleFeatureTest
20,0,A0_30,a,a,True,1173,4,15154,singleFeatureTest
0,0,T0_65,t,b,False,6353,4,15159,singleFeatureTest
1,0,A0_10,a,a,True,5079,4,15159,singleFeatureTest
2,0,B0_90,b,b,True,1045,4,15159,singleFeatureTest
3,0,B0_60,b,a,False,1807,4,15159,singleFeatureTest
4,0,A0_50,a,a,True,997,4,15159,singleFeatureTest
5,0,A0_30,a,a,True,662,4,15159,singleFeatureTest
6,0,A0_40,a,a,True,887,4,15159,singleFeatureTest
7,0,A0_00,a,a,True,518,4,15159,singleFeatureTest
8,0,B0_80,b,b,True,4278,4,15159,singleFeatureTest
9,0,B0_80,b,b,True,805,4,15159,singleFeatureTest
10,0,A0_20,a,b,False,644,4,15159,singleFeatureTest
11,0,B0_70,b,b,True,1983,4,15159,singleFeatureTest
12,0,T0_60,t,b,False,1935,4,15159,singleFeatureTest
13,0,T0_40,t,b,False,1237,4,15159,singleFeatureTest
14,0,A0_45,a,b,False,638,4,15159,singleFeatureTest
15,0,T0_70,t,b,False,383,4,15159,singleFeatureTest
16,0,B0_55,b,a,False,1670,4,15159,singleFeatureTest
17,0,B0_40,b,a,False,6454,4,15159,singleFeatureTest
18,0,B0_50,b,a,False,567,4,15159,singleFeatureTest
19,0,T0_50,t,b,False,2926,4,15159,singleFeatureTest
20,0,A0_20,a,a,True,950,4,15159,singleFeatureTest
0,0,B0_55,b,b,True,10948,4,15164,singleFeatureTest
1,0,A0_50,a,b,False,2884,4,15164,singleFeatureTest
2,0,T0_70,t,a,False,1358,4,15164,singleFeatureTest
3,0,A0_45,a,b,False,1154,4,15164,singleFeatureTest
4,0,T0_65,t,b,False,1271,4,15164,singleFeatureTest
5,0,B0_60,b,b,True,1738,4,15164,singleFeatureTest
6,0,B0_50,b,b,True,774,4,15164,singleFeatureTest
7,0,B0_80,b,b,True,829,4,15164,singleFeatureTest
8,0,B0_90,b,b,True,663,4,15164,singleFeatureTest
9,0,A0_10,a,a,True,884,4,15164,singleFeatureTest
10,0,B0_40,b,a,False,1323,4,15164,singleFeatureTest
11,0,A0_00,a,a,True,874,4,15164,singleFeatureTest
12,0,T0_60,t,b,False,2955,4,15164,singleFeatureTest
13,0,A0_30,a,a,True,1038,4,15164,singleFeatureTest
14,0,T0_50,t,b,False,1106,4,15164,singleFeatureTest
15,0,B0_80,b,b,True,1299,4,15164,singleFeatureTest
16,0,B0_70,b,b,True,1237,4,15164,singleFeatureTest
17,0,A0_20,a,a,True,995,4,15164,singleFeatureTest
18,0,T0_40,t,b,False,1242,4,15164,singleFeatureTest
19,0,A0_20,a,b,False,1830,4,15164,singleFeatureTest
20,0,A0_40,a,b,False,1085,4,15164,singleFeatureTest
0,0,A0_10,a,a,True,2089,4,15191,singleFeatureTest
1,0,A0_20,a,b,False,1335,4,15191,singleFeatureTest
2,0,B0_50,b,b,True,1000,4,15191,singleFeatureTest
3,0,A0_45,a,b,False,1703,4,15191,singleFeatureTest
4,0,B0_60,b,b,True,3597,4,15191,singleFeatureTest
5,0,B0_80,b,b,True,2247,4,15191,singleFeatureTest
6,0,A0_50,a,b,False,1137,4,15191,singleFeatureTest
7,0,T0_50,t,b,False,1074,4,15191,singleFeatureTest
8,0,B0_90,b,b,True,924,4,15191,singleFeatureTest
9,0,T0_60,t,b,False,1397,4,15191,singleFeatureTest
10,0,B0_40,b,b,True,1240,4,15191,singleFeatureTest
11,0,T0_40,t,b,False,662,4,15191,singleFeatureTest
12,0,T0_65,t,b,False,1117,4,15191,singleFeatureTest
13,0,T0_70,t,b,False,573,4,15191,singleFeatureTest
14,0,A0_00,a,a,True,892,4,15191,singleFeatureTest
15,0,B0_80,b,b,True,705,4,15191,singleFeatureTest
16,0,B0_55,b,b,True,1195,4,15191,singleFeatureTest
17,0,A0_20,a,a,True,973,4,15191,singleFeatureTest
18,0,B0_70,b,b,True,757,4,15191,singleFeatureTest
19,0,A0_40,a,b,False,1630,4,15191,singleFeatureTest
20,0,A0_30,a,a,True,834,4,15191,singleFeatureTest
0,0,T0_70,t,a,False,3747,4,15209,singleFeatureTest
1,0,T0_60,t,a,False,4502,4,15209,singleFeatureTest
2,0,A0_10,a,a,True,2125,4,15209,singleFeatureTest
3,0,A0_45,a,a,True,1662,4,15209,singleFeatureTest
4,0,B0_90,b,b,True,1277,4,15209,singleFeatureTest
5,0,B0_40,b,a,False,2413,4,15209,singleFeatureTest
6,0,A0_20,a,a,True,1208,4,15209,singleFeatureTest
7,0,B0_80,b,b,True,1150,4,15209,singleFeatureTest
8,0,A0_30,a,a,True,1454,4,15209,singleFeatureTest
9,0,A0_00,a,a,True,1098,4,15209,singleFeatureTest
10,0,A0_50,a,a,True,1470,4,15209,singleFeatureTest
11,0,B0_55,b,a,False,1424,4,15209,singleFeatureTest
12,0,B0_80,b,b,True,1533,4,15209,singleFeatureTest
13,0,T0_50,t,a,False,1981,4,15209,singleFeatureTest
14,0,B0_70,b,b,True,3640,4,15209,singleFeatureTest
15,0,T0_40,t,a,False,1826,4,15209,singleFeatureTest
16,0,T0_65,t,b,False,1454,4,15209,singleFeatureTest
17,0,A0_20,a,a,True,1585,4,15209,singleFeatureTest
18,0,B0_50,b,a,False,1433,4,15209,singleFeatureTest
19,0,A0_40,a,a,True,1086,4,15209,singleFeatureTest
20,0,B0_60,b,b,True,1172,4,15209,singleFeatureTest
0,0,T0_60,t,b,False,9964,4,15214,singleFeatureTest
1,0,A0_50,a,a,True,9661,4,15214,singleFeatureTest
2,0,B0_40,b,a,False,1740,4,15214,singleFeatureTest
3,0,A0_30,a,a,True,1095,4,15214,singleFeatureTest
4,0,T0_40,t,b,False,2417,4,15214,singleFeatureTest
5,0,A0_20,a,a,True,3389,4,15214,singleFeatureTest
6,0,B0_55,b,b,True,1150,4,15214,singleFeatureTest
7,0,A0_20,a,a,True,2359,4,15214,singleFeatureTest
8,0,B0_90,b,b,True,1154,4,15214,singleFeatureTest
9,0,A0_45,a,b,False,4009,4,15214,singleFeatureTest
10,0,B0_70,b,b,True,1291,4,15214,singleFeatureTest
11,0,B0_60,b,b,True,1384,4,15214,singleFeatureTest
12,0,A0_10,a,a,True,823,4,15214,singleFeatureTest
13,0,A0_40,a,b,False,2099,4,15214,singleFeatureTest
14,0,B0_50,b,b,True,1978,4,15214,singleFeatureTest
15,0,T0_50,t,b,False,2600,4,15214,singleFeatureTest
16,0,B0_80,b,b,True,1040,4,15214,singleFeatureTest
17,0,T0_65,t,b,False,3552,4,15214,singleFeatureTest
18,0,A0_00,a,a,True,1054,4,15214,singleFeatureTest
19,0,B0_80,b,b,True,1049,4,15214,singleFeatureTest
20,0,T0_70,t,b,False,1807,4,15214,singleFeatureTest
0,0,B0_40,b,a,False,7704,4,15225,singleFeatureTest
1,0,B0_70,b,b,True,1289,4,15225,singleFeatureTest
2,0,A0_40,a,b,False,2913,4,15225,singleFeatureTest
3,0,B0_90,b,b,True,1534,4,15225,singleFeatureTest
4,0,B0_50,b,b,True,1155,4,15225,singleFeatureTest
5,0,A0_10,a,a,True,1072,4,15225,singleFeatureTest
6,0,A0_20,a,a,True,631,4,15225,singleFeatureTest
7,0,A0_50,a,b,False,1767,4,15225,singleFeatureTest
8,0,A0_30,a,b,False,678,4,15225,singleFeatureTest
9,0,B0_80,b,b,True,3153,4,15225,singleFeatureTest
10,0,T0_50,t,b,False,1759,4,15225,singleFeatureTest
11,0,B0_80,b,b,True,1065,4,15225,singleFeatureTest
12,0,B0_55,b,b,True,1217,4,15225,singleFeatureTest
13,0,T0_70,t,b,False,1196,4,15225,singleFeatureTest
14,0,A0_45,a,a,True,1297,4,15225,singleFeatureTest
15,0,A0_00,a,a,True,1446,4,15225,singleFeatureTest
16,0,B0_60,b,b,True,1042,4,15225,singleFeatureTest
17,0,T0_65,t,b,False,1318,4,15225,singleFeatureTest
18,0,T0_60,t,b,False,772,4,15225,singleFeatureTest
19,0,A0_20,a,a,True,1048,4,15225,singleFeatureTest
20,0,T0_40,t,b,False,1948,4,15225,singleFeatureTest
0,0,T0_40,t,b,False,1787,4,15230,singleFeatureTest
1,0,B0_80,b,b,True,3755,4,15230,singleFeatureTest
2,0,B0_55,b,b,True,1246,4,15230,singleFeatureTest
3,0,B0_90,b,b,True,1101,4,15230,singleFeatureTest
4,0,A0_30,a,a,True,1406,4,15230,singleFeatureTest
5,0,T0_65,t,b,False,949,4,15230,singleFeatureTest
6,0,A0_20,a,a,True,2031,4,15230,singleFeatureTest
7,0,T0_60,t,b,False,901,4,15230,singleFeatureTest
8,0,B0_50,b,b,True,7629,4,15230,singleFeatureTest
9,0,T0_70,t,b,False,998,4,15230,singleFeatureTest
10,0,A0_45,a,b,False,735,4,15230,singleFeatureTest
11,0,B0_40,b,b,True,1110,4,15230,singleFeatureTest
12,0,A0_00,a,a,True,918,4,15230,singleFeatureTest
13,0,T0_50,t,b,False,797,4,15230,singleFeatureTest
14,0,B0_70,b,b,True,1079,4,15230,singleFeatureTest
15,0,B0_80,b,b,True,1189,4,15230,singleFeatureTest
16,0,A0_50,a,b,False,1943,4,15230,singleFeatureTest
17,0,B0_60,b,b,True,774,4,15230,singleFeatureTest
18,0,A0_40,a,a,True,909,4,15230,singleFeatureTest
19,0,A0_20,a,b,False,846,4,15230,singleFeatureTest
20,0,A0_10,a,a,True,1318,4,15230,singleFeatureTest
0,0,A0_20,a,a,True,2644,4,15282,singleFeatureTest
1,0,A0_45,a,b,False,2582,4,15282,singleFeatureTest
2,0,A0_30,a,a,True,1117,4,15282,singleFeatureTest
3,0,A0_40,a,b,False,3843,4,15282,singleFeatureTest
4,0,B0_80,b,b,True,790,4,15282,singleFeatureTest
5,0,T0_65,t,b,False,1542,4,15282,singleFeatureTest
6,0,B0_70,b,b,True,1470,4,15282,singleFeatureTest
7,0,B0_55,b,b,True,775,4,15282,singleFeatureTest
8,0,T0_70,t,b,False,2982,4,15282,singleFeatureTest
9,0,A0_50,a,a,True,1298,4,15282,singleFeatureTest
10,0,B0_90,b,b,True,803,4,15282,singleFeatureTest
11,0,B0_40,b,a,False,902,4,15282,singleFeatureTest
12,0,B0_60,b,b,True,2753,4,15282,singleFeatureTest
13,0,T0_50,t,b,False,1632,4,15282,singleFeatureTest
14,0,A0_10,a,a,True,1817,4,15282,singleFeatureTest
15,0,T0_40,t,b,False,2030,4,15282,singleFeatureTest
16,0,B0_50,b,b,True,1895,4,15282,singleFeatureTest
17,0,A0_20,a,b,False,613,4,15282,singleFeatureTest
18,0,T0_60,t,b,False,1167,4,15282,singleFeatureTest
19,0,A0_00,a,a,True,710,4,15282,singleFeatureTest
20,0,B0_80,b,b,True,1005,4,15282,singleFeatureTest
0,0,A0_30,a,a,True,2681,4,15287,singleFeatureTest
1,0,B0_80,b,b,True,2055,4,15287,singleFeatureTest
2,0,A0_45,a,b,False,3572,4,15287,singleFeatureTest
3,0,A0_50,a,a,True,3973,4,15287,singleFeatureTest
4,0,T0_60,t,b,False,1286,4,15287,singleFeatureTest
5,0,A0_20,a,a,True,1446,4,15287,singleFeatureTest
6,0,A0_10,a,a,True,788,4,15287,singleFeatureTest
7,0,B0_60,b,b,True,1058,4,15287,singleFeatureTest
8,0,A0_40,a,b,False,3220,4,15287,singleFeatureTest
9,0,B0_70,b,b,True,1745,4,15287,singleFeatureTest
10,0,T0_40,t,b,False,1119,4,15287,singleFeatureTest
11,0,A0_00,a,a,True,1607,4,15287,singleFeatureTest
12,0,B0_55,b,b,True,2408,4,15287,singleFeatureTest
13,0,B0_90,b,b,True,1028,4,15287,singleFeatureTest
14,0,T0_70,t,b,False,886,4,15287,singleFeatureTest
15,0,T0_65,t,b,False,632,4,15287,singleFeatureTest
16,0,A0_20,a,b,False,606,4,15287,singleFeatureTest
17,0,B0_80,b,b,True,2130,4,15287,singleFeatureTest
18,0,T0_50,t,b,False,758,4,15287,singleFeatureTest
19,0,B0_40,b,a,False,6829,4,15287,singleFeatureTest
20,0,B0_50,b,a,False,823,4,15287,singleFeatureTest
0,0,B0_50,b,a,False,10751,4,15292,singleFeatureTest
1,0,B0_55,b,b,True,1399,4,15292,singleFeatureTest
2,0,T0_40,t,b,False,780,4,15292,singleFeatureTest
3,0,A0_50,a,a,True,990,4,15292,singleFeatureTest
4,0,T0_60,t,b,False,590,4,15292,singleFeatureTest
5,0,B0_70,b,a,False,533,4,15292,singleFeatureTest
6,0,A0_10,a,a,True,1046,4,15292,singleFeatureTest
7,0,T0_50,t,b,False,723,4,15292,singleFeatureTest
8,0,B0_40,b,a,False,2014,4,15292,singleFeatureTest
9,0,T0_70,t,b,False,891,4,15292,singleFeatureTest
10,0,A0_00,a,a,True,933,4,15292,singleFeatureTest
11,0,B0_80,b,b,True,725,4,15292,singleFeatureTest
12,0,A0_40,a,a,True,2523,4,15292,singleFeatureTest
13,0,T0_65,t,b,False,681,4,15292,singleFeatureTest
14,0,A0_20,a,b,False,838,4,15292,singleFeatureTest
15,0,A0_30,a,a,True,870,4,15292,singleFeatureTest
16,0,A0_20,a,a,True,877,4,15292,singleFeatureTest
17,0,B0_60,b,b,True,1382,4,15292,singleFeatureTest
18,0,B0_90,b,b,True,846,4,15292,singleFeatureTest
19,0,B0_80,b,b,True,1029,4,15292,singleFeatureTest
20,0,A0_45,a,b,False,926,4,15292,singleFeatureTest
0,0,A0_20,a,a,True,2457,4,15297,singleFeatureTest
1,0,A0_45,a,b,False,956,4,15297,singleFeatureTest
2,0,A0_50,a,a,True,1248,4,15297,singleFeatureTest
3,0,B0_55,b,b,True,1225,4,15297,singleFeatureTest
4,0,T0_60,t,b,False,702,4,15297,singleFeatureTest
5,0,B0_50,b,a,False,1293,4,15297,singleFeatureTest
6,0,A0_40,a,a,True,3240,4,15297,singleFeatureTest
7,0,A0_30,a,a,True,822,4,15297,singleFeatureTest
8,0,B0_90,b,b,True,963,4,15297,singleFeatureTest
9,0,B0_80,b,b,True,851,4,15297,singleFeatureTest
10,0,T0_40,t,b,False,965,4,15297,singleFeatureTest
11,0,T0_70,t,b,False,736,4,15297,singleFeatureTest
12,0,A0_00,a,a,True,981,4,15297,singleFeatureTest
13,0,T0_65,t,b,False,1479,4,15297,singleFeatureTest
14,0,B0_40,b,a,False,810,4,15297,singleFeatureTest
15,0,B0_80,b,b,True,1273,4,15297,singleFeatureTest
16,0,B0_60,b,b,True,702,4,15297,singleFeatureTest
17,0,T0_50,t,b,False,922,4,15297,singleFeatureTest
18,0,A0_10,a,a,True,796,4,15297,singleFeatureTest
19,0,B0_70,b,b,True,2003,4,15297,singleFeatureTest
20,0,A0_20,a,a,True,1218,4,15297,singleFeatureTest
0,0,B0_55,b,b,True,5296,4,15302,singleFeatureTest
1,0,T0_50,t,b,False,1187,4,15302,singleFeatureTest
2,0,T0_60,t,b,False,715,4,15302,singleFeatureTest
3,0,T0_40,t,b,False,725,4,15302,singleFeatureTest
4,0,A0_50,a,a,True,3022,4,15302,singleFeatureTest
5,0,B0_80,b,b,True,964,4,15302,singleFeatureTest
6,0,T0_70,t,b,False,806,4,15302,singleFeatureTest
7,0,A0_20,a,a,True,937,4,15302,singleFeatureTest
8,0,B0_40,b,a,False,1399,4,15302,singleFeatureTest
9,0,A0_30,a,a,True,802,4,15302,singleFeatureTest
10,0,A0_45,a,a,True,4695,4,15302,singleFeatureTest
11,0,A0_10,a,a,True,1155,4,15302,singleFeatureTest
12,0,B0_80,b,a,False,1406,4,15302,singleFeatureTest
13,0,A0_40,a,a,True,928,4,15302,singleFeatureTest
14,0,B0_70,b,a,False,1054,4,15302,singleFeatureTest
15,0,T0_65,t,b,False,966,4,15302,singleFeatureTest
16,0,A0_00,a,a,True,844,4,15302,singleFeatureTest
17,0,B0_90,b,a,False,899,4,15302,singleFeatureTest
18,0,B0_50,b,a,False,743,4,15302,singleFeatureTest
19,0,B0_60,b,a,False,783,4,15302,singleFeatureTest
20,0,A0_20,a,a,True,767,4,15302,singleFeatureTest
0,0,B0_55,b,b,True,1682,4,15307,singleFeatureTest
1,0,A0_40,a,a,True,1163,4,15307,singleFeatureTest
2,0,T0_70,t,b,False,1461,4,15307,singleFeatureTest
3,0,B0_40,b,a,False,933,4,15307,singleFeatureTest
4,0,A0_20,a,a,True,923,4,15307,singleFeatureTest
5,0,T0_60,t,b,False,1057,4,15307,singleFeatureTest
6,0,A0_10,a,a,True,789,4,15307,singleFeatureTest
7,0,B0_50,b,a,False,821,4,15307,singleFeatureTest
8,0,T0_50,t,b,False,820,4,15307,singleFeatureTest
9,0,T0_65,t,b,False,786,4,15307,singleFeatureTest
10,0,T0_40,t,b,False,910,4,15307,singleFeatureTest
11,0,B0_80,b,b,True,1091,4,15307,singleFeatureTest
12,0,B0_60,b,b,True,1809,4,15307,singleFeatureTest
13,0,A0_00,a,a,True,1157,4,15307,singleFeatureTest
14,0,B0_80,b,b,True,1179,4,15307,singleFeatureTest
15,0,A0_50,a,a,True,883,4,15307,singleFeatureTest
16,0,A0_20,a,b,False,1015,4,15307,singleFeatureTest
17,0,B0_90,b,b,True,950,4,15307,singleFeatureTest
18,0,B0_70,b,a,False,1072,4,15307,singleFeatureTest
19,0,A0_30,a,a,True,956,4,15307,singleFeatureTest
20,0,A0_45,a,b,False,926,4,15307,singleFeatureTest
0,0,T0_50,t,a,False,2337,4,14920,singleFeatureTest
1,0,B0_60,b,b,True,1821,4,14920,singleFeatureTest
2,0,B0_55,b,b,True,3181,4,14920,singleFeatureTest
3,0,B0_40,b,a,False,735,4,14920,singleFeatureTest
4,0,B0_80,b,b,True,1053,4,14920,singleFeatureTest
5,0,B0_50,b,b,True,739,4,14920,singleFeatureTest
6,0,T0_40,t,a,False,584,4,14920,singleFeatureTest
7,0,A0_50,a,b,False,2047,4,14920,singleFeatureTest
8,0,A0_20,a,b,False,1018,4,14920,singleFeatureTest
9,0,A0_10,a,a,True,1004,4,14920,singleFeatureTest
10,0,T0_60,t,b,False,953,4,14920,singleFeatureTest
11,0,T0_65,t,b,False,628,4,14920,singleFeatureTest
12,0,A0_45,a,b,False,531,4,14920,singleFeatureTest
13,0,A0_30,a,a,True,751,4,14920,singleFeatureTest
14,0,A0_20,a,a,True,625,4,14920,singleFeatureTest
15,0,T0_70,t,b,False,1080,4,14920,singleFeatureTest
16,0,B0_80,b,b,True,649,4,14920,singleFeatureTest
17,0,A0_00,a,a,True,813,4,14920,singleFeatureTest
18,0,B0_90,b,b,True,1127,4,14920,singleFeatureTest
19,0,A0_40,a,a,True,1068,4,14920,singleFeatureTest
20,0,B0_70,b,b,True,1014,4,14920,singleFeatureTest
0,0,B0_50,b,b,True,10147,4,14925,singleFeatureTest
1,0,A0_30,a,a,True,1260,4,14925,singleFeatureTest
2,0,B0_90,b,b,True,1111,4,14925,singleFeatureTest
3,0,A0_45,a,a,True,4069,4,14925,singleFeatureTest
4,0,B0_55,b,b,True,1145,4,14925,singleFeatureTest
5,0,A0_20,a,a,True,991,4,14925,singleFeatureTest
6,0,T0_40,t,b,False,1729,4,14925,singleFeatureTest
7,0,B0_60,b,b,True,1613,4,14925,singleFeatureTest
8,0,T0_65,t,b,False,1500,4,14925,singleFeatureTest
9,0,B0_40,b,a,False,1230,4,14925,singleFeatureTest
10,0,T0_70,t,b,False,3514,4,14925,singleFeatureTest
11,0,B0_70,b,b,True,2106,4,14925,singleFeatureTest
12,0,T0_60,t,a,False,3248,4,14925,singleFeatureTest
13,0,A0_20,a,a,True,1026,4,14925,singleFeatureTest
14,0,B0_80,b,b,True,1149,4,14925,singleFeatureTest
15,0,A0_00,a,a,True,704,4,14925,singleFeatureTest
16,0,A0_50,a,a,True,2150,4,14925,singleFeatureTest
17,0,A0_10,a,a,True,693,4,14925,singleFeatureTest
18,0,A0_40,a,a,True,1021,4,14925,singleFeatureTest
19,0,B0_80,b,b,True,1030,4,14925,singleFeatureTest
20,0,T0_50,t,a,False,1125,4,14925,singleFeatureTest
0,0,B0_40,b,b,True,3266,4,14930,singleFeatureTest
1,0,T0_50,t,a,False,3558,4,14930,singleFeatureTest
2,0,A0_45,a,b,False,2006,4,14930,singleFeatureTest
3,0,A0_50,a,b,False,4965,4,14930,singleFeatureTest
4,0,B0_50,b,b,True,8356,4,14930,singleFeatureTest
5,0,A0_40,a,b,False,2489,4,14930,singleFeatureTest
6,0,B0_60,b,b,True,1683,4,14930,singleFeatureTest
7,0,A0_20,a,a,True,1724,4,14930,singleFeatureTest
8,0,B0_90,b,b,True,1799,4,14930,singleFeatureTest
9,0,T0_70,t,b,False,3393,4,14930,singleFeatureTest
10,0,T0_60,t,b,False,2477,4,14930,singleFeatureTest
11,0,T0_40,t,a,False,6235,4,14930,singleFeatureTest
12,0,B0_70,b,b,True,2853,4,14930,singleFeatureTest
13,0,B0_80,b,b,True,997,4,14930,singleFeatureTest
14,0,A0_00,a,a,True,1158,4,14930,singleFeatureTest
15,0,A0_20,a,b,False,2232,4,14930,singleFeatureTest
16,0,T0_65,t,b,False,2508,4,14930,singleFeatureTest
17,0,B0_80,b,b,True,1350,4,14930,singleFeatureTest
18,0,B0_55,b,b,True,1102,4,14930,singleFeatureTest
19,0,A0_10,a,a,True,1314,4,14930,singleFeatureTest
20,0,A0_30,a,a,True,7222,4,14930,singleFeatureTest
0,0,B0_60,b,a,False,6592,4,14935,singleFeatureTest
1,0,A0_45,a,a,True,3294,4,14935,singleFeatureTest
2,0,T0_50,t,a,False,1545,4,14935,singleFeatureTest
3,0,B0_55,b,a,False,997,4,14935,singleFeatureTest
4,0,A0_00,a,a,True,1502,4,14935,singleFeatureTest
5,0,T0_40,t,b,False,5687,4,14935,singleFeatureTest
6,0,B0_80,b,b,True,1318,4,14935,singleFeatureTest
7,0,A0_40,a,a,True,1152,4,14935,singleFeatureTest
8,0,T0_70,t,b,False,2096,4,14935,singleFeatureTest
9,0,B0_80,b,b,True,859,4,14935,singleFeatureTest
10,0,A0_50,a,a,True,1287,4,14935,singleFeatureTest
11,0,A0_20,a,a,True,1326,4,14935,singleFeatureTest
12,0,A0_30,a,a,True,1118,4,14935,singleFeatureTest
13,0,A0_10,a,a,True,990,4,14935,singleFeatureTest
14,0,B0_50,b,a,False,1390,4,14935,singleFeatureTest
15,0,T0_60,t,b,False,2197,4,14935,singleFeatureTest
16,0,T0_65,t,b,False,832,4,14935,singleFeatureTest
17,0,B0_40,b,a,False,1204,4,14935,singleFeatureTest
18,0,A0_20,a,a,True,857,4,14935,singleFeatureTest
19,0,B0_90,b,b,True,984,4,14935,singleFeatureTest
20,0,B0_70,b,a,False,1009,4,14935,singleFeatureTest
0,0,A0_45,a,a,True,3642,4,14940,singleFeatureTest
1,0,A0_20,a,a,True,5588,4,14940,singleFeatureTest
2,0,T0_40,t,a,False,4815,4,14940,singleFeatureTest
3,0,B0_90,b,b,True,1922,4,14940,singleFeatureTest
4,0,B0_70,b,a,False,956,4,14940,singleFeatureTest
5,0,B0_60,b,a,False,989,4,14940,singleFeatureTest
6,0,T0_60,t,b,False,2456,4,14940,singleFeatureTest
7,0,T0_70,t,b,False,1025,4,14940,singleFeatureTest
8,0,B0_55,b,b,True,2358,4,14940,singleFeatureTest
9,0,B0_50,b,a,False,1672,4,14940,singleFeatureTest
10,0,B0_80,b,b,True,2009,4,14940,singleFeatureTest
11,0,B0_80,b,b,True,1586,4,14940,singleFeatureTest
12,0,A0_20,a,a,True,1702,4,14940,singleFeatureTest
13,0,A0_30,a,a,True,1437,4,14940,singleFeatureTest
14,0,B0_40,b,a,False,1434,4,14940,singleFeatureTest
15,0,T0_50,t,b,False,4712,4,14940,singleFeatureTest
16,0,A0_40,a,a,True,2475,4,14940,singleFeatureTest
17,0,A0_50,a,a,True,1055,4,14940,singleFeatureTest
18,0,T0_65,t,b,False,1411,4,14940,singleFeatureTest
19,0,A0_10,a,a,True,998,4,14940,singleFeatureTest
20,0,A0_00,a,a,True,824,4,14940,singleFeatureTest
0,0,B0_80,b,b,True,9206,4,14945,singleFeatureTest
1,0,T0_70,t,a,False,3104,4,14945,singleFeatureTest
2,0,A0_30,a,b,False,1902,4,14945,singleFeatureTest
3,0,T0_50,t,a,False,2934,4,14945,singleFeatureTest
4,0,B0_50,b,b,True,9454,4,14945,singleFeatureTest
5,0,A0_10,a,a,True,1250,4,14945,singleFeatureTest
6,0,A0_40,a,b,False,2138,4,14945,singleFeatureTest
7,0,A0_45,a,a,True,2750,4,14945,singleFeatureTest
8,0,T0_60,t,a,False,6637,4,14945,singleFeatureTest
9,0,T0_65,t,b,False,1206,4,14945,singleFeatureTest
10,0,T0_40,t,a,False,941,4,14945,singleFeatureTest
11,0,A0_00,a,a,True,3436,4,14945,singleFeatureTest
12,0,A0_50,a,b,False,1157,4,14945,singleFeatureTest
13,0,B0_70,b,b,True,951,4,14945,singleFeatureTest
14,0,A0_20,a,a,True,1222,4,14945,singleFeatureTest
15,0,B0_90,b,b,True,3442,4,14945,singleFeatureTest
16,0,B0_60,b,b,True,870,4,14945,singleFeatureTest
17,0,B0_40,b,b,True,1008,4,14945,singleFeatureTest
18,0,B0_80,b,b,True,1061,4,14945,singleFeatureTest
19,0,A0_20,a,a,True,797,4,14945,singleFeatureTest
20,0,B0_55,b,a,False,1638,4,14945,singleFeatureTest
0,0,A0_10,a,a,True,3066,4,14950,singleFeatureTest
1,0,B0_70,b,b,True,1942,4,14950,singleFeatureTest
2,0,B0_60,b,b,True,1315,4,14950,singleFeatureTest
3,0,B0_80,b,b,True,1243,4,14950,singleFeatureTest
4,0,T0_40,t,a,False,3950,4,14950,singleFeatureTest
5,0,T0_50,t,b,False,1499,4,14950,singleFeatureTest
6,0,A0_20,a,a,True,942,4,14950,singleFeatureTest
7,0,A0_00,a,a,True,1084,4,14950,singleFeatureTest
8,0,A0_30,a,a,True,799,4,14950,singleFeatureTest
9,0,A0_50,a,a,True,1234,4,14950,singleFeatureTest
10,0,T0_70,t,b,False,1039,4,14950,singleFeatureTest
11,0,A0_20,a,b,False,894,4,14950,singleFeatureTest
12,0,A0_45,a,a,True,726,4,14950,singleFeatureTest
13,0,T0_60,t,b,False,590,4,14950,singleFeatureTest
14,0,B0_40,b,a,False,438,4,14950,singleFeatureTest
15,0,A0_40,a,a,True,502,4,14950,singleFeatureTest
16,0,B0_80,b,b,True,910,4,14950,singleFeatureTest
17,0,B0_55,b,a,False,518,4,14950,singleFeatureTest
18,0,B0_50,b,b,True,1102,4,14950,singleFeatureTest
19,0,T0_65,t,a,False,1319,4,14950,singleFeatureTest
20,0,B0_90,b,b,True,835,4,14950,singleFeatureTest
0,0,A0_00,a,a,True,1072,4,14970,singleFeatureTest
1,0,A0_20,a,a,True,3814,4,14970,singleFeatureTest
2,0,B0_70,b,b,True,976,4,14970,singleFeatureTest
3,0,T0_65,t,b,False,958,4,14970,singleFeatureTest
4,0,B0_50,b,b,True,1110,4,14970,singleFeatureTest
5,0,A0_10,a,a,True,942,4,14970,singleFeatureTest
6,0,B0_60,b,b,True,1024,4,14970,singleFeatureTest
7,0,A0_50,a,b,False,1030,4,14970,singleFeatureTest
8,0,B0_90,b,b,True,830,4,14970,singleFeatureTest
9,0,T0_40,t,a,False,1470,4,14970,singleFeatureTest
10,0,B0_80,b,b,True,957,4,14970,singleFeatureTest
11,0,B0_55,b,b,True,998,4,14970,singleFeatureTest
12,0,T0_70,t,b,False,701,4,14970,singleFeatureTest
13,0,A0_45,a,a,True,1023,4,14970,singleFeatureTest
14,0,A0_20,a,a,True,1328,4,14970,singleFeatureTest
15,0,B0_80,b,b,True,859,4,14970,singleFeatureTest
16,0,T0_60,t,b,False,1435,4,14970,singleFeatureTest
17,0,A0_40,a,a,True,1084,4,14970,singleFeatureTest
18,0,B0_40,b,a,False,1213,4,14970,singleFeatureTest
19,0,A0_30,a,a,True,1780,4,14970,singleFeatureTest
20,0,T0_50,t,b,False,2181,4,14970,singleFeatureTest
0,0,T0_40,t,b,False,6374,4,14975,singleFeatureTest
1,0,B0_60,b,a,False,4469,4,14975,singleFeatureTest
2,0,T0_50,t,b,False,1736,4,14975,singleFeatureTest
3,0,A0_50,a,a,True,1168,4,14975,singleFeatureTest
4,0,T0_65,t,b,False,847,4,14975,singleFeatureTest
5,0,A0_20,a,b,False,1285,4,14975,singleFeatureTest
6,0,A0_10,a,a,True,1094,4,14975,singleFeatureTest
7,0,B0_70,b,b,True,1328,4,14975,singleFeatureTest
8,0,A0_30,a,a,True,988,4,14975,singleFeatureTest
9,0,B0_50,b,a,False,1118,4,14975,singleFeatureTest
10,0,A0_00,a,a,True,952,4,14975,singleFeatureTest
11,0,B0_40,b,a,False,2371,4,14975,singleFeatureTest
12,0,B0_90,b,a,False,2851,4,14975,singleFeatureTest
13,0,B0_80,b,a,False,735,4,14975,singleFeatureTest
14,0,A0_45,a,b,False,773,4,14975,singleFeatureTest
15,0,T0_60,t,b,False,734,4,14975,singleFeatureTest
16,0,B0_55,b,b,True,631,4,14975,singleFeatureTest
17,0,A0_40,a,a,True,735,4,14975,singleFeatureTest
18,0,T0_70,t,b,False,854,4,14975,singleFeatureTest
19,0,B0_80,b,b,True,836,4,14975,singleFeatureTest
20,0,A0_20,a,a,True,814,4,14975,singleFeatureTest
0,0,B0_90,b,b,True,8630,4,14985,singleFeatureTest
1,0,T0_50,t,a,False,2002,4,14985,singleFeatureTest
2,0,B0_40,b,a,False,4166,4,14985,singleFeatureTest
3,0,B0_55,b,b,True,747,4,14985,singleFeatureTest
4,0,B0_80,b,b,True,1783,4,14985,singleFeatureTest
5,0,B0_60,b,b,True,1686,4,14985,singleFeatureTest
6,0,B0_80,b,b,True,874,4,14985,singleFeatureTest
7,0,A0_50,a,a,True,2175,4,14985,singleFeatureTest
8,0,T0_40,t,b,False,774,4,14985,singleFeatureTest
9,0,A0_40,a,a,True,1283,4,14985,singleFeatureTest
10,0,A0_00,a,a,True,847,4,14985,singleFeatureTest
11,0,A0_45,a,b,False,958,4,14985,singleFeatureTest
12,0,A0_30,a,a,True,788,4,14985,singleFeatureTest
13,0,A0_10,a,a,True,950,4,14985,singleFeatureTest
14,0,A0_20,a,a,True,984,4,14985,singleFeatureTest
15,0,A0_20,a,b,False,881,4,14985,singleFeatureTest
16,0,B0_70,b,b,True,1326,4,14985,singleFeatureTest
17,0,T0_60,t,b,False,780,4,14985,singleFeatureTest
18,0,T0_65,t,b,False,859,4,14985,singleFeatureTest
19,0,T0_70,t,b,False,710,4,14985,singleFeatureTest
20,0,B0_50,b,a,False,1000,4,14985,singleFeatureTest
0,0,B0_50,b,a,False,3403,4,14990,singleFeatureTest
1,0,T0_60,t,b,False,982,4,14990,singleFeatureTest
2,0,A0_20,a,a,True,1207,4,14990,singleFeatureTest
3,0,T0_50,t,b,False,836,4,14990,singleFeatureTest
4,0,A0_30,a,a,True,1079,4,14990,singleFeatureTest
5,0,A0_00,a,a,True,789,4,14990,singleFeatureTest
6,0,B0_70,b,b,True,1464,4,14990,singleFeatureTest
7,0,A0_50,a,a,True,944,4,14990,singleFeatureTest
8,0,T0_65,t,b,False,917,4,14990,singleFeatureTest
9,0,A0_20,a,b,False,669,4,14990,singleFeatureTest
10,0,B0_90,b,b,True,1029,4,14990,singleFeatureTest
11,0,B0_40,b,a,False,693,4,14990,singleFeatureTest
12,0,A0_40,a,a,True,698,4,14990,singleFeatureTest
13,0,T0_40,t,b,False,793,4,14990,singleFeatureTest
14,0,B0_80,b,b,True,687,4,14990,singleFeatureTest
15,0,B0_60,b,a,False,978,4,14990,singleFeatureTest
16,0,A0_45,a,b,False,840,4,14990,singleFeatureTest
17,0,T0_70,t,b,False,973,4,14990,singleFeatureTest
18,0,B0_55,b,b,True,1150,4,14990,singleFeatureTest
19,0,A0_10,a,a,True,783,4,14990,singleFeatureTest
20,0,B0_80,b,b,True,1091,4,14990,singleFeatureTest
