trial,block,stimId,category,response,accuracy,rt,condition,id,phase
0,0,T0,t,b,False,4006,3,15036,testPhase
1,0,B11,b,b,True,1078,3,15036,testPhase
2,0,T6,t,a,False,1086,3,15036,testPhase
3,0,T3,t,b,False,2085,3,15036,testPhase
4,0,A6,a,a,True,1171,3,15036,testPhase
5,0,T2,t,b,False,998,3,15036,testPhase
6,0,T1,t,b,False,1062,3,15036,testPhase
7,0,B9,b,b,True,782,3,15036,testPhase
8,0,T6,t,a,False,3582,3,15036,testPhase
9,0,A0,a,a,True,637,3,15036,testPhase
10,0,T5,t,a,False,1790,3,15036,testPhase
11,0,T6,t,a,False,868,3,15036,testPhase
12,0,T5,t,a,False,940,3,15036,testPhase
13,0,B7,b,b,True,741,3,15036,testPhase
14,0,B8,b,b,True,990,3,15036,testPhase
15,0,A2,a,a,True,914,3,15036,testPhase
16,0,T7,t,a,False,2685,3,15036,testPhase
17,0,T4,t,a,False,1118,3,15036,testPhase
18,0,T6,t,a,False,894,3,15036,testPhase
19,0,A9,a,a,True,1468,3,15036,testPhase
20,0,B1,b,b,True,805,3,15036,testPhase
21,0,T10,t,b,False,2414,3,15036,testPhase
22,0,T7,t,a,False,1142,3,15036,testPhase
23,0,T1,t,b,False,766,3,15036,testPhase
24,0,T1,t,b,False,1031,3,15036,testPhase
25,0,T3,t,b,False,1053,3,15036,testPhase
26,0,B3,b,b,True,838,3,15036,testPhase
27,0,A7,a,a,True,1591,3,15036,testPhase
28,0,T2,t,b,False,2005,3,15036,testPhase
29,0,T1,t,b,False,1236,3,15036,testPhase
30,0,T2,t,b,False,646,3,15036,testPhase
31,0,T4,t,a,False,3141,3,15036,testPhase
32,0,T1,t,b,False,814,3,15036,testPhase
33,0,B2,b,b,True,1212,3,15036,testPhase
34,0,T0,t,b,False,1276,3,15036,testPhase
35,0,T9,t,b,False,1484,3,15036,testPhase
36,0,T7,t,a,False,1078,3,15036,testPhase
37,0,T7,t,a,False,711,3,15036,testPhase
38,0,T0,t,b,False,1238,3,15036,testPhase
39,0,T3,t,b,False,798,3,15036,testPhase
40,0,T3,t,b,False,646,3,15036,testPhase
41,0,T4,t,a,False,1917,3,15036,testPhase
42,0,A3,a,a,True,1318,3,15036,testPhase
43,0,A1,a,a,True,822,3,15036,testPhase
44,0,T2,t,b,False,815,3,15036,testPhase
45,0,T5,t,a,False,5732,3,15036,testPhase
46,0,T8,t,b,False,843,3,15036,testPhase
47,0,T6,t,a,False,2724,3,15036,testPhase
48,0,B0,b,b,True,3962,3,15036,testPhase
49,0,T4,t,a,False,9923,3,15036,testPhase
50,0,T11,t,b,False,959,3,15036,testPhase
51,0,A4,a,b,False,813,3,15036,testPhase
52,0,T0,t,b,False,2094,3,15036,testPhase
53,0,A10,a,a,True,2293,3,15036,testPhase
54,0,B4,b,b,True,1365,3,15036,testPhase
55,0,T5,t,a,False,1350,3,15036,testPhase
56,0,B5,b,b,True,1069,3,15036,testPhase
57,0,T4,t,a,False,830,3,15036,testPhase
58,0,T7,t,a,False,952,3,15036,testPhase
59,0,T5,t,a,False,1276,3,15036,testPhase
60,0,B6,b,b,True,885,3,15036,testPhase
61,0,A8,a,a,True,2293,3,15036,testPhase
62,0,A5,a,a,True,2229,3,15036,testPhase
63,0,T3,t,b,False,954,3,15036,testPhase
64,0,T2,t,b,False,622,3,15036,testPhase
65,0,B10,b,b,True,662,3,15036,testPhase
66,0,T0,t,b,False,974,3,15036,testPhase
67,0,A11,a,a,True,958,3,15036,testPhase
0,0,T2,t,a,False,2231,3,15041,testPhase
1,0,T5,t,b,False,1091,3,15041,testPhase
2,0,T5,t,b,False,868,3,15041,testPhase
3,0,T7,t,b,False,797,3,15041,testPhase
4,0,T7,t,b,False,981,3,15041,testPhase
5,0,T1,t,a,False,1033,3,15041,testPhase
6,0,B9,b,b,True,1164,3,15041,testPhase
7,0,T0,t,a,False,964,3,15041,testPhase
8,0,T4,t,b,False,1046,3,15041,testPhase
9,0,T1,t,a,False,815,3,15041,testPhase
10,0,T0,t,a,False,973,3,15041,testPhase
11,0,T6,t,b,False,1526,3,15041,testPhase
12,0,T3,t,a,False,876,3,15041,testPhase
13,0,B0,b,b,True,3117,3,15041,testPhase
14,0,T0,t,a,False,1084,3,15041,testPhase
15,0,T7,t,b,False,991,3,15041,testPhase
16,0,T7,t,b,False,741,3,15041,testPhase
17,0,T6,t,b,False,541,3,15041,testPhase
18,0,B1,b,a,False,1334,3,15041,testPhase
19,0,T0,t,a,False,1013,3,15041,testPhase
20,0,T4,t,b,False,1119,3,15041,testPhase
21,0,A10,a,a,True,1225,3,15041,testPhase
22,0,B3,b,b,True,799,3,15041,testPhase
23,0,B6,b,b,True,792,3,15041,testPhase
24,0,A11,a,b,False,937,3,15041,testPhase
25,0,A6,a,a,True,973,3,15041,testPhase
26,0,A9,a,a,True,1109,3,15041,testPhase
27,0,T4,t,b,False,1081,3,15041,testPhase
28,0,B10,b,b,True,809,3,15041,testPhase
29,0,T3,t,a,False,958,3,15041,testPhase
30,0,A3,a,a,True,1085,3,15041,testPhase
31,0,T3,t,a,False,856,3,15041,testPhase
32,0,A5,a,a,True,843,3,15041,testPhase
33,0,T7,t,b,False,1038,3,15041,testPhase
34,0,T1,t,a,False,986,3,15041,testPhase
35,0,T2,t,a,False,812,3,15041,testPhase
36,0,B2,b,a,False,819,3,15041,testPhase
37,0,T4,t,b,False,792,3,15041,testPhase
38,0,A8,a,a,True,910,3,15041,testPhase
39,0,T2,t,a,False,894,3,15041,testPhase
40,0,A0,a,a,True,695,3,15041,testPhase
41,0,T2,t,a,False,696,3,15041,testPhase
42,0,B11,b,b,True,1055,3,15041,testPhase
43,0,T3,t,a,False,868,3,15041,testPhase
44,0,T1,t,a,False,861,3,15041,testPhase
45,0,T9,t,a,False,1538,3,15041,testPhase
46,0,T1,t,a,False,846,3,15041,testPhase
47,0,T5,t,b,False,940,3,15041,testPhase
48,0,T0,t,a,False,917,3,15041,testPhase
49,0,T10,t,a,False,1952,3,15041,testPhase
50,0,T5,t,b,False,866,3,15041,testPhase
51,0,T6,t,b,False,940,3,15041,testPhase
52,0,B8,b,a,False,1350,3,15041,testPhase
53,0,T6,t,b,False,1093,3,15041,testPhase
54,0,B7,b,b,True,750,3,15041,testPhase
55,0,A7,a,a,True,1025,3,15041,testPhase
56,0,B5,b,b,True,1179,3,15041,testPhase
57,0,T11,t,a,False,795,3,15041,testPhase
58,0,A4,a,a,True,875,3,15041,testPhase
59,0,B4,b,b,True,1016,3,15041,testPhase
60,0,T6,t,b,False,833,3,15041,testPhase
61,0,T4,t,b,False,841,3,15041,testPhase
62,0,T5,t,b,False,878,3,15041,testPhase
63,0,A1,a,a,True,980,3,15041,testPhase
64,0,T2,t,a,False,731,3,15041,testPhase
65,0,T3,t,a,False,998,3,15041,testPhase
66,0,T8,t,b,False,3318,3,15041,testPhase
67,0,A2,a,a,True,1039,3,15041,testPhase
0,0,T6,t,b,False,1645,3,15046,testPhase
1,0,T3,t,a,False,1187,3,15046,testPhase
2,0,B0,b,b,True,1761,3,15046,testPhase
3,0,T7,t,b,False,1377,3,15046,testPhase
4,0,T0,t,a,False,928,3,15046,testPhase
5,0,T1,t,a,False,1154,3,15046,testPhase
6,0,A6,a,a,True,811,3,15046,testPhase
7,0,T4,t,b,False,1046,3,15046,testPhase
8,0,A10,a,b,False,2008,3,15046,testPhase
9,0,B2,b,b,True,1193,3,15046,testPhase
10,0,A2,a,a,True,749,3,15046,testPhase
11,0,T3,t,a,False,621,3,15046,testPhase
12,0,T1,t,a,False,462,3,15046,testPhase
13,0,T4,t,b,False,1118,3,15046,testPhase
14,0,T5,t,b,False,589,3,15046,testPhase
15,0,T0,t,a,False,1039,3,15046,testPhase
16,0,T4,t,b,False,1086,3,15046,testPhase
17,0,T5,t,b,False,1188,3,15046,testPhase
18,0,B5,b,b,True,967,3,15046,testPhase
19,0,T1,t,a,False,951,3,15046,testPhase
20,0,B10,b,b,True,878,3,15046,testPhase
21,0,A5,a,a,True,2126,3,15046,testPhase
22,0,A8,a,a,True,1325,3,15046,testPhase
23,0,T1,t,a,False,1445,3,15046,testPhase
24,0,T4,t,b,False,2126,3,15046,testPhase
25,0,T6,t,b,False,1128,3,15046,testPhase
26,0,T2,t,a,False,1058,3,15046,testPhase
27,0,T2,t,a,False,689,3,15046,testPhase
28,0,B6,b,b,True,1886,3,15046,testPhase
29,0,A9,a,b,False,1026,3,15046,testPhase
30,0,B3,b,b,True,1510,3,15046,testPhase
31,0,B11,b,b,True,1027,3,15046,testPhase
32,0,T0,t,a,False,676,3,15046,testPhase
33,0,T5,t,b,False,943,3,15046,testPhase
34,0,B4,b,b,True,1005,3,15046,testPhase
35,0,A7,a,a,True,831,3,15046,testPhase
36,0,T2,t,a,False,565,3,15046,testPhase
37,0,B1,b,b,True,814,3,15046,testPhase
38,0,A4,a,b,False,774,3,15046,testPhase
39,0,T7,t,b,False,1610,3,15046,testPhase
40,0,T5,t,b,False,800,3,15046,testPhase
41,0,T6,t,b,False,1115,3,15046,testPhase
42,0,T0,t,a,False,1322,3,15046,testPhase
43,0,T3,t,a,False,1539,3,15046,testPhase
44,0,T6,t,b,False,948,3,15046,testPhase
45,0,T0,t,a,False,845,3,15046,testPhase
46,0,B8,b,b,True,1061,3,15046,testPhase
47,0,T1,t,a,False,477,3,15046,testPhase
48,0,T3,t,a,False,797,3,15046,testPhase
49,0,T5,t,b,False,848,3,15046,testPhase
50,0,T7,t,b,False,614,3,15046,testPhase
51,0,T2,t,a,False,746,3,15046,testPhase
52,0,B7,b,b,True,1617,3,15046,testPhase
53,0,T7,t,b,False,758,3,15046,testPhase
54,0,T4,t,b,False,783,3,15046,testPhase
55,0,A1,a,a,True,771,3,15046,testPhase
56,0,T11,t,a,False,1005,3,15046,testPhase
57,0,T10,t,b,False,1629,3,15046,testPhase
58,0,T6,t,b,False,1133,3,15046,testPhase
59,0,A3,a,a,True,1265,3,15046,testPhase
60,0,T7,t,b,False,878,3,15046,testPhase
61,0,B9,b,b,True,1197,3,15046,testPhase
62,0,T3,t,a,False,814,3,15046,testPhase
63,0,A11,a,b,False,1128,3,15046,testPhase
64,0,A0,a,a,True,691,3,15046,testPhase
65,0,T8,t,b,False,864,3,15046,testPhase
66,0,T9,t,b,False,1133,3,15046,testPhase
67,0,T2,t,a,False,691,3,15046,testPhase
0,0,T4,t,b,False,3932,3,15068,testPhase
1,0,T2,t,a,False,1066,3,15068,testPhase
2,0,T6,t,b,False,5598,3,15068,testPhase
3,0,A2,a,a,True,1213,3,15068,testPhase
4,0,A1,a,a,True,870,3,15068,testPhase
5,0,T0,t,a,False,1181,3,15068,testPhase
6,0,B5,b,b,True,1413,3,15068,testPhase
7,0,B0,b,a,False,2438,3,15068,testPhase
8,0,T1,t,a,False,3477,3,15068,testPhase
9,0,T4,t,b,False,1142,3,15068,testPhase
10,0,T0,t,a,False,686,3,15068,testPhase
11,0,T7,t,a,False,6686,3,15068,testPhase
12,0,T4,t,b,False,1030,3,15068,testPhase
13,0,T1,t,a,False,646,3,15068,testPhase
14,0,T7,t,b,False,1485,3,15068,testPhase
15,0,T8,t,a,False,3654,3,15068,testPhase
16,0,A3,a,a,True,878,3,15068,testPhase
17,0,A4,a,a,True,703,3,15068,testPhase
18,0,T1,t,a,False,645,3,15068,testPhase
19,0,T5,t,b,False,869,3,15068,testPhase
20,0,A0,a,a,True,693,3,15068,testPhase
21,0,T7,t,b,False,1029,3,15068,testPhase
22,0,B3,b,a,False,5805,3,15068,testPhase
23,0,B1,b,a,False,1702,3,15068,testPhase
24,0,T3,t,a,False,822,3,15068,testPhase
25,0,B6,b,a,False,910,3,15068,testPhase
26,0,T6,t,b,False,1013,3,15068,testPhase
27,0,T7,t,b,False,621,3,15068,testPhase
28,0,A9,a,a,True,941,3,15068,testPhase
29,0,A10,a,a,True,772,3,15068,testPhase
30,0,T2,t,a,False,1013,3,15068,testPhase
31,0,A7,a,a,True,797,3,15068,testPhase
32,0,T2,t,a,False,661,3,15068,testPhase
33,0,T4,t,b,False,1230,3,15068,testPhase
34,0,T6,t,b,False,693,3,15068,testPhase
35,0,B8,b,a,False,1309,3,15068,testPhase
36,0,T7,t,b,False,764,3,15068,testPhase
37,0,T3,t,a,False,613,3,15068,testPhase
38,0,T10,t,a,False,1622,3,15068,testPhase
39,0,T3,t,a,False,631,3,15068,testPhase
40,0,A5,a,a,True,1358,3,15068,testPhase
41,0,T4,t,b,False,742,3,15068,testPhase
42,0,T2,t,a,False,668,3,15068,testPhase
43,0,T5,t,b,False,686,3,15068,testPhase
44,0,T0,t,a,False,622,3,15068,testPhase
45,0,T1,t,a,False,501,3,15068,testPhase
46,0,T5,t,b,False,893,3,15068,testPhase
47,0,A11,a,a,True,1261,3,15068,testPhase
48,0,B11,b,b,True,677,3,15068,testPhase
49,0,T3,t,a,False,598,3,15068,testPhase
50,0,B9,b,b,True,974,3,15068,testPhase
51,0,T9,t,a,False,685,3,15068,testPhase
52,0,T2,t,a,False,1750,3,15068,testPhase
53,0,T0,t,a,False,630,3,15068,testPhase
54,0,B2,b,b,True,765,3,15068,testPhase
55,0,T0,t,a,False,526,3,15068,testPhase
56,0,B7,b,a,False,1757,3,15068,testPhase
57,0,T11,t,a,False,997,3,15068,testPhase
58,0,T6,t,b,False,1012,3,15068,testPhase
59,0,T1,t,a,False,469,3,15068,testPhase
60,0,B4,b,b,True,971,3,15068,testPhase
61,0,A8,a,a,True,493,3,15068,testPhase
62,0,T5,t,b,False,740,3,15068,testPhase
63,0,T5,t,b,False,669,3,15068,testPhase
64,0,T3,t,a,False,869,3,15068,testPhase
65,0,T6,t,b,False,765,3,15068,testPhase
66,0,A6,a,a,True,518,3,15068,testPhase
67,0,B10,b,b,True,734,3,15068,testPhase
0,0,A11,a,a,True,3802,3,15073,testPhase
1,0,T6,t,b,False,1332,3,15073,testPhase
2,0,A3,a,a,True,1133,3,15073,testPhase
3,0,A4,a,a,True,768,3,15073,testPhase
4,0,T7,t,b,False,1137,3,15073,testPhase
5,0,T3,t,b,False,1682,3,15073,testPhase
6,0,A5,a,b,False,2757,3,15073,testPhase
7,0,T8,t,b,False,5981,3,15073,testPhase
8,0,T7,t,b,False,1093,3,15073,testPhase
9,0,T6,t,b,False,874,3,15073,testPhase
10,0,T10,t,a,False,3804,3,15073,testPhase
11,0,A10,a,a,True,1242,3,15073,testPhase
12,0,T1,t,a,False,1099,3,15073,testPhase
13,0,T2,t,a,False,1223,3,15073,testPhase
14,0,T9,t,b,False,3440,3,15073,testPhase
15,0,A9,a,a,True,1485,3,15073,testPhase
16,0,T7,t,b,False,1189,3,15073,testPhase
17,0,T0,t,a,False,1143,3,15073,testPhase
18,0,A7,a,a,True,872,3,15073,testPhase
19,0,B2,b,a,False,2256,3,15073,testPhase
20,0,T5,t,b,False,1126,3,15073,testPhase
21,0,T0,t,a,False,857,3,15073,testPhase
22,0,T5,t,b,False,1078,3,15073,testPhase
23,0,B1,b,a,False,4748,3,15073,testPhase
24,0,T6,t,b,False,993,3,15073,testPhase
25,0,T2,t,a,False,1478,3,15073,testPhase
26,0,B11,b,b,True,1932,3,15073,testPhase
27,0,T3,t,a,False,1203,3,15073,testPhase
28,0,T1,t,a,False,968,3,15073,testPhase
29,0,T4,t,b,False,1045,3,15073,testPhase
30,0,T0,t,a,False,1126,3,15073,testPhase
31,0,T11,t,a,False,5222,3,15073,testPhase
32,0,T5,t,b,False,1032,3,15073,testPhase
33,0,T1,t,a,False,787,3,15073,testPhase
34,0,T1,t,a,False,1073,3,15073,testPhase
35,0,B0,b,a,False,1213,3,15073,testPhase
36,0,T2,t,a,False,960,3,15073,testPhase
37,0,T4,t,b,False,993,3,15073,testPhase
38,0,B6,b,a,False,3387,3,15073,testPhase
39,0,T2,t,a,False,941,3,15073,testPhase
40,0,B5,b,b,True,892,3,15073,testPhase
41,0,T4,t,b,False,910,3,15073,testPhase
42,0,A8,a,a,True,1085,3,15073,testPhase
43,0,B10,b,b,True,969,3,15073,testPhase
44,0,B3,b,a,False,1270,3,15073,testPhase
45,0,T5,t,b,False,874,3,15073,testPhase
46,0,T6,t,b,False,852,3,15073,testPhase
47,0,T4,t,b,False,762,3,15073,testPhase
48,0,T4,t,b,False,745,3,15073,testPhase
49,0,B4,b,b,True,1053,3,15073,testPhase
50,0,B9,b,b,True,1002,3,15073,testPhase
51,0,B7,b,a,False,1179,3,15073,testPhase
52,0,T6,t,b,False,1272,3,15073,testPhase
53,0,T3,t,a,False,1086,3,15073,testPhase
54,0,T7,t,b,False,1097,3,15073,testPhase
55,0,T0,t,a,False,835,3,15073,testPhase
56,0,T1,t,a,False,832,3,15073,testPhase
57,0,T5,t,b,False,1264,3,15073,testPhase
58,0,T3,t,a,False,715,3,15073,testPhase
59,0,A1,a,a,True,875,3,15073,testPhase
60,0,A2,a,a,True,1333,3,15073,testPhase
61,0,T3,t,a,False,1094,3,15073,testPhase
62,0,T7,t,b,False,1109,3,15073,testPhase
63,0,A6,a,a,True,1146,3,15073,testPhase
64,0,T0,t,a,False,1329,3,15073,testPhase
65,0,A0,a,a,True,942,3,15073,testPhase
66,0,T2,t,a,False,934,3,15073,testPhase
67,0,B8,b,b,True,993,3,15073,testPhase
0,0,T7,t,a,False,5092,3,15088,testPhase
1,0,T5,t,a,False,2801,3,15088,testPhase
2,0,B2,b,b,True,1221,3,15088,testPhase
3,0,T2,t,a,False,3436,3,15088,testPhase
4,0,A7,a,a,True,2340,3,15088,testPhase
5,0,A0,a,a,True,1024,3,15088,testPhase
6,0,T1,t,a,False,8069,3,15088,testPhase
7,0,A8,a,b,False,6597,3,15088,testPhase
8,0,T0,t,b,False,3774,3,15088,testPhase
9,0,T2,t,a,False,4984,3,15088,testPhase
10,0,A5,a,a,True,1594,3,15088,testPhase
11,0,T10,t,b,False,2429,3,15088,testPhase
12,0,B8,b,b,True,930,3,15088,testPhase
13,0,A2,a,a,True,1182,3,15088,testPhase
14,0,B6,b,b,True,1063,3,15088,testPhase
15,0,T6,t,a,False,2262,3,15088,testPhase
16,0,B4,b,b,True,2229,3,15088,testPhase
17,0,T3,t,b,False,4941,3,15088,testPhase
18,0,A1,a,a,True,819,3,15088,testPhase
19,0,T0,t,a,False,3536,3,15088,testPhase
20,0,B5,b,b,True,1213,3,15088,testPhase
21,0,T7,t,a,False,1084,3,15088,testPhase
22,0,T6,t,a,False,1614,3,15088,testPhase
23,0,T1,t,b,False,2368,3,15088,testPhase
24,0,B9,b,b,True,1032,3,15088,testPhase
25,0,B1,b,a,False,2056,3,15088,testPhase
26,0,T0,t,a,False,3055,3,15088,testPhase
27,0,A3,a,a,True,1024,3,15088,testPhase
28,0,A10,a,a,True,1368,3,15088,testPhase
29,0,T6,t,a,False,1321,3,15088,testPhase
30,0,T9,t,b,False,2492,3,15088,testPhase
31,0,T8,t,b,False,2423,3,15088,testPhase
32,0,T7,t,a,False,914,3,15088,testPhase
33,0,T0,t,a,False,3891,3,15088,testPhase
34,0,T1,t,b,False,1044,3,15088,testPhase
35,0,T2,t,b,False,954,3,15088,testPhase
36,0,T5,t,a,False,1896,3,15088,testPhase
37,0,T7,t,a,False,824,3,15088,testPhase
38,0,B0,b,b,True,1883,3,15088,testPhase
39,0,A9,a,a,True,2975,3,15088,testPhase
40,0,T5,t,a,False,1281,3,15088,testPhase
41,0,T11,t,b,False,1099,3,15088,testPhase
42,0,A6,a,b,False,1885,3,15088,testPhase
43,0,A11,a,a,True,1905,3,15088,testPhase
44,0,T2,t,b,False,817,3,15088,testPhase
45,0,B10,b,b,True,818,3,15088,testPhase
46,0,A4,a,a,True,1006,3,15088,testPhase
47,0,T3,t,b,False,1030,3,15088,testPhase
48,0,T7,t,a,False,1291,3,15088,testPhase
49,0,B11,b,b,True,911,3,15088,testPhase
50,0,T3,t,b,False,935,3,15088,testPhase
51,0,T2,t,b,False,843,3,15088,testPhase
52,0,B3,b,b,True,2136,3,15088,testPhase
53,0,T5,t,a,False,1983,3,15088,testPhase
54,0,T4,t,a,False,2904,3,15088,testPhase
55,0,T6,t,a,False,858,3,15088,testPhase
56,0,T5,t,a,False,922,3,15088,testPhase
57,0,T3,t,b,False,894,3,15088,testPhase
58,0,T1,t,b,False,916,3,15088,testPhase
59,0,T4,t,b,False,3283,3,15088,testPhase
60,0,T1,t,b,False,1311,3,15088,testPhase
61,0,T4,t,a,False,3770,3,15088,testPhase
62,0,T6,t,a,False,781,3,15088,testPhase
63,0,T0,t,b,False,1033,3,15088,testPhase
64,0,B7,b,b,True,727,3,15088,testPhase
65,0,T4,t,b,False,4759,3,15088,testPhase
66,0,T3,t,b,False,706,3,15088,testPhase
67,0,T4,t,a,False,8436,3,15088,testPhase
0,0,B11,b,b,True,2665,3,15093,testPhase
1,0,A9,a,a,True,4800,3,15093,testPhase
2,0,T4,t,b,False,1592,3,15093,testPhase
3,0,T4,t,b,False,1409,3,15093,testPhase
4,0,B0,b,b,True,1336,3,15093,testPhase
5,0,T8,t,b,False,1597,3,15093,testPhase
6,0,A1,a,a,True,1066,3,15093,testPhase
7,0,T5,t,b,False,3571,3,15093,testPhase
8,0,B9,b,b,True,968,3,15093,testPhase
9,0,T2,t,b,False,1773,3,15093,testPhase
10,0,T3,t,b,False,1115,3,15093,testPhase
11,0,T2,t,b,False,1025,3,15093,testPhase
12,0,B4,b,b,True,2391,3,15093,testPhase
13,0,T1,t,b,False,1302,3,15093,testPhase
14,0,T5,t,a,False,2464,3,15093,testPhase
15,0,T0,t,b,False,1360,3,15093,testPhase
16,0,B3,b,b,True,1332,3,15093,testPhase
17,0,T3,t,b,False,1258,3,15093,testPhase
18,0,T5,t,a,False,1755,3,15093,testPhase
19,0,T6,t,a,False,1063,3,15093,testPhase
20,0,B8,b,b,True,1150,3,15093,testPhase
21,0,B2,b,b,True,2966,3,15093,testPhase
22,0,T0,t,b,False,1151,3,15093,testPhase
23,0,T7,t,a,False,1468,3,15093,testPhase
24,0,T6,t,a,False,1162,3,15093,testPhase
25,0,T7,t,a,False,1190,3,15093,testPhase
26,0,A2,a,a,True,1007,3,15093,testPhase
27,0,T1,t,b,False,1116,3,15093,testPhase
28,0,T2,t,b,False,932,3,15093,testPhase
29,0,A8,a,b,False,1271,3,15093,testPhase
30,0,T6,t,a,False,1570,3,15093,testPhase
31,0,T11,t,b,False,1402,3,15093,testPhase
32,0,T3,t,b,False,1352,3,15093,testPhase
33,0,T1,t,b,False,1281,3,15093,testPhase
34,0,A4,a,a,True,1289,3,15093,testPhase
35,0,T0,t,b,False,1721,3,15093,testPhase
36,0,T9,t,b,False,1156,3,15093,testPhase
37,0,T2,t,b,False,1262,3,15093,testPhase
38,0,T7,t,a,False,3627,3,15093,testPhase
39,0,A11,a,b,False,1495,3,15093,testPhase
40,0,T2,t,b,False,1095,3,15093,testPhase
41,0,A0,a,a,True,1065,3,15093,testPhase
42,0,B7,b,b,True,1117,3,15093,testPhase
43,0,B10,b,b,True,1042,3,15093,testPhase
44,0,T4,t,b,False,4679,3,15093,testPhase
45,0,T0,t,b,False,1056,3,15093,testPhase
46,0,B1,b,b,True,848,3,15093,testPhase
47,0,B5,b,b,True,1876,3,15093,testPhase
48,0,A5,a,a,True,892,3,15093,testPhase
49,0,A10,a,a,True,1064,3,15093,testPhase
50,0,A7,a,a,True,1436,3,15093,testPhase
51,0,T3,t,b,False,1273,3,15093,testPhase
52,0,T5,t,a,False,2101,3,15093,testPhase
53,0,T3,t,b,False,1040,3,15093,testPhase
54,0,B6,b,b,True,917,3,15093,testPhase
55,0,T7,t,a,False,1976,3,15093,testPhase
56,0,T4,t,b,False,997,3,15093,testPhase
57,0,T0,t,b,False,3162,3,15093,testPhase
58,0,T5,t,a,False,2907,3,15093,testPhase
59,0,A6,a,a,True,1214,3,15093,testPhase
60,0,A3,a,a,True,799,3,15093,testPhase
61,0,T1,t,b,False,994,3,15093,testPhase
62,0,T6,t,a,False,1985,3,15093,testPhase
63,0,T7,t,a,False,1115,3,15093,testPhase
64,0,T10,t,b,False,960,3,15093,testPhase
65,0,T6,t,a,False,1332,3,15093,testPhase
66,0,T4,t,b,False,1118,3,15093,testPhase
67,0,T1,t,b,False,1305,3,15093,testPhase
0,0,T7,t,a,False,3382,3,15098,testPhase
1,0,B1,b,b,True,1046,3,15098,testPhase
2,0,T1,t,b,False,1145,3,15098,testPhase
3,0,A6,a,b,False,837,3,15098,testPhase
4,0,T7,t,a,False,1549,3,15098,testPhase
5,0,A1,a,a,True,765,3,15098,testPhase
6,0,T3,t,b,False,1083,3,15098,testPhase
7,0,T0,t,b,False,770,3,15098,testPhase
8,0,T5,t,a,False,950,3,15098,testPhase
9,0,T6,t,b,False,574,3,15098,testPhase
10,0,B2,b,b,True,902,3,15098,testPhase
11,0,T7,t,b,False,738,3,15098,testPhase
12,0,T2,t,b,False,1219,3,15098,testPhase
13,0,A2,a,a,True,878,3,15098,testPhase
14,0,T7,t,a,False,1424,3,15098,testPhase
15,0,B4,b,b,True,757,3,15098,testPhase
16,0,T6,t,b,False,670,3,15098,testPhase
17,0,T6,t,b,False,1297,3,15098,testPhase
18,0,T0,t,b,False,1110,3,15098,testPhase
19,0,T9,t,b,False,749,3,15098,testPhase
20,0,T2,t,b,False,683,3,15098,testPhase
21,0,T5,t,b,False,685,3,15098,testPhase
22,0,B5,b,b,True,574,3,15098,testPhase
23,0,T0,t,b,False,566,3,15098,testPhase
24,0,B6,b,b,True,574,3,15098,testPhase
25,0,T11,t,a,False,1641,3,15098,testPhase
26,0,T4,t,b,False,1232,3,15098,testPhase
27,0,B0,b,b,True,727,3,15098,testPhase
28,0,T3,t,b,False,580,3,15098,testPhase
29,0,T2,t,b,False,526,3,15098,testPhase
30,0,B3,b,b,True,533,3,15098,testPhase
31,0,T1,t,b,False,621,3,15098,testPhase
32,0,A11,a,b,False,626,3,15098,testPhase
33,0,T1,t,b,False,638,3,15098,testPhase
34,0,B8,b,b,True,687,3,15098,testPhase
35,0,T1,t,b,False,541,3,15098,testPhase
36,0,B9,b,b,True,654,3,15098,testPhase
37,0,T5,t,a,False,862,3,15098,testPhase
38,0,T4,t,a,False,878,3,15098,testPhase
39,0,A5,a,a,True,934,3,15098,testPhase
40,0,T6,t,a,False,893,3,15098,testPhase
41,0,A4,a,a,True,1065,3,15098,testPhase
42,0,T4,t,b,False,1606,3,15098,testPhase
43,0,T5,t,b,False,545,3,15098,testPhase
44,0,T0,t,b,False,829,3,15098,testPhase
45,0,T4,t,b,False,654,3,15098,testPhase
46,0,T1,t,b,False,894,3,15098,testPhase
47,0,T2,t,b,False,574,3,15098,testPhase
48,0,T3,t,b,False,598,3,15098,testPhase
49,0,A3,a,a,True,949,3,15098,testPhase
50,0,B10,b,b,True,734,3,15098,testPhase
51,0,T3,t,b,False,478,3,15098,testPhase
52,0,A9,a,b,False,405,3,15098,testPhase
53,0,T8,t,b,False,664,3,15098,testPhase
54,0,A0,a,b,False,614,3,15098,testPhase
55,0,T3,t,b,False,575,3,15098,testPhase
56,0,T5,t,b,False,776,3,15098,testPhase
57,0,B11,b,b,True,698,3,15098,testPhase
58,0,A10,a,b,False,687,3,15098,testPhase
59,0,T10,t,b,False,1763,3,15098,testPhase
60,0,B7,b,b,True,966,3,15098,testPhase
61,0,T4,t,a,False,968,3,15098,testPhase
62,0,T0,t,a,False,659,3,15098,testPhase
63,0,T7,t,a,False,1309,3,15098,testPhase
64,0,T2,t,b,False,910,3,15098,testPhase
65,0,T6,t,a,False,845,3,15098,testPhase
66,0,A8,a,a,True,543,3,15098,testPhase
67,0,A7,a,a,True,753,3,15098,testPhase
0,0,T11,t,a,False,1552,3,15103,testPhase
1,0,A11,a,b,False,1031,3,15103,testPhase
2,0,B8,b,b,True,1043,3,15103,testPhase
3,0,A10,a,a,True,1179,3,15103,testPhase
4,0,B5,b,b,True,935,3,15103,testPhase
5,0,T6,t,b,False,781,3,15103,testPhase
6,0,T0,t,a,False,590,3,15103,testPhase
7,0,B6,b,a,False,1299,3,15103,testPhase
8,0,A1,a,a,True,953,3,15103,testPhase
9,0,T4,t,b,False,2688,3,15103,testPhase
10,0,T1,t,a,False,749,3,15103,testPhase
11,0,T5,t,b,False,947,3,15103,testPhase
12,0,T5,t,b,False,737,3,15103,testPhase
13,0,T2,t,a,False,691,3,15103,testPhase
14,0,T2,t,a,False,808,3,15103,testPhase
15,0,T7,t,b,False,924,3,15103,testPhase
16,0,T3,t,a,False,665,3,15103,testPhase
17,0,T4,t,b,False,884,3,15103,testPhase
18,0,A6,a,a,True,690,3,15103,testPhase
19,0,T4,t,b,False,1317,3,15103,testPhase
20,0,T2,t,a,False,922,3,15103,testPhase
21,0,T0,t,a,False,827,3,15103,testPhase
22,0,B2,b,b,True,728,3,15103,testPhase
23,0,B0,b,a,False,1801,3,15103,testPhase
24,0,T1,t,a,False,797,3,15103,testPhase
25,0,A9,a,a,True,1595,3,15103,testPhase
26,0,A4,a,b,False,1038,3,15103,testPhase
27,0,T9,t,b,False,996,3,15103,testPhase
28,0,T2,t,a,False,685,3,15103,testPhase
29,0,A5,a,b,False,853,3,15103,testPhase
30,0,T7,t,b,False,916,3,15103,testPhase
31,0,T7,t,b,False,722,3,15103,testPhase
32,0,T5,t,b,False,732,3,15103,testPhase
33,0,T8,t,a,False,940,3,15103,testPhase
34,0,B7,b,a,False,1262,3,15103,testPhase
35,0,T6,t,b,False,782,3,15103,testPhase
36,0,T0,t,a,False,708,3,15103,testPhase
37,0,T5,t,b,False,699,3,15103,testPhase
38,0,T7,t,b,False,677,3,15103,testPhase
39,0,T5,t,b,False,762,3,15103,testPhase
40,0,B11,b,b,True,690,3,15103,testPhase
41,0,T6,t,b,False,647,3,15103,testPhase
42,0,T6,t,b,False,997,3,15103,testPhase
43,0,T6,t,b,False,818,3,15103,testPhase
44,0,A2,a,a,True,759,3,15103,testPhase
45,0,T0,t,a,False,671,3,15103,testPhase
46,0,A3,a,a,True,532,3,15103,testPhase
47,0,B9,b,b,True,4557,3,15103,testPhase
48,0,A7,a,a,True,851,3,15103,testPhase
49,0,T3,t,a,False,749,3,15103,testPhase
50,0,T4,t,b,False,792,3,15103,testPhase
51,0,T3,t,a,False,692,3,15103,testPhase
52,0,A8,a,a,True,1072,3,15103,testPhase
53,0,T3,t,a,False,829,3,15103,testPhase
54,0,B3,b,b,True,807,3,15103,testPhase
55,0,T10,t,a,False,1997,3,15103,testPhase
56,0,T2,t,a,False,923,3,15103,testPhase
57,0,T3,t,a,False,817,3,15103,testPhase
58,0,T7,t,b,False,1250,3,15103,testPhase
59,0,T4,t,b,False,867,3,15103,testPhase
60,0,T1,t,a,False,789,3,15103,testPhase
61,0,T0,t,a,False,812,3,15103,testPhase
62,0,T1,t,a,False,722,3,15103,testPhase
63,0,B1,b,a,False,3321,3,15103,testPhase
64,0,A0,a,a,True,795,3,15103,testPhase
65,0,B10,b,b,True,897,3,15103,testPhase
66,0,B4,b,b,True,926,3,15103,testPhase
67,0,T1,t,a,False,719,3,15103,testPhase
0,0,B5,b,b,True,3205,3,15108,testPhase
1,0,T1,t,a,False,1961,3,15108,testPhase
2,0,T6,t,b,False,1149,3,15108,testPhase
3,0,T3,t,a,False,820,3,15108,testPhase
4,0,T4,t,b,False,696,3,15108,testPhase
5,0,B11,b,b,True,878,3,15108,testPhase
6,0,B3,b,b,True,789,3,15108,testPhase
7,0,T0,t,a,False,986,3,15108,testPhase
8,0,B0,b,b,True,751,3,15108,testPhase
9,0,A8,a,b,False,1199,3,15108,testPhase
10,0,A5,a,a,True,785,3,15108,testPhase
11,0,B10,b,b,True,939,3,15108,testPhase
12,0,T4,t,b,False,606,3,15108,testPhase
13,0,B8,b,b,True,629,3,15108,testPhase
14,0,A3,a,b,False,366,3,15108,testPhase
15,0,T1,t,a,False,868,3,15108,testPhase
16,0,T7,t,b,False,982,3,15108,testPhase
17,0,T7,t,b,False,565,3,15108,testPhase
18,0,T2,t,a,False,1518,3,15108,testPhase
19,0,A10,a,b,False,833,3,15108,testPhase
20,0,B4,b,b,True,854,3,15108,testPhase
21,0,T6,t,b,False,622,3,15108,testPhase
22,0,T8,t,b,False,485,3,15108,testPhase
23,0,T2,t,b,False,445,3,15108,testPhase
24,0,T6,t,b,False,937,3,15108,testPhase
25,0,T1,t,a,False,1495,3,15108,testPhase
26,0,T10,t,a,False,1284,3,15108,testPhase
27,0,B7,b,b,True,998,3,15108,testPhase
28,0,T7,t,b,False,499,3,15108,testPhase
29,0,T1,t,a,False,974,3,15108,testPhase
30,0,T3,t,a,False,740,3,15108,testPhase
31,0,A0,a,a,True,561,3,15108,testPhase
32,0,T0,t,a,False,597,3,15108,testPhase
33,0,T9,t,b,False,982,3,15108,testPhase
34,0,A7,a,a,True,934,3,15108,testPhase
35,0,T5,t,b,False,1248,3,15108,testPhase
36,0,T0,t,b,False,957,3,15108,testPhase
37,0,T7,t,b,False,1182,3,15108,testPhase
38,0,A2,a,a,True,1351,3,15108,testPhase
39,0,T4,t,b,False,1902,3,15108,testPhase
40,0,T3,t,a,False,724,3,15108,testPhase
41,0,T2,t,a,False,718,3,15108,testPhase
42,0,A6,a,a,True,711,3,15108,testPhase
43,0,A11,a,b,False,981,3,15108,testPhase
44,0,T5,t,a,False,598,3,15108,testPhase
45,0,T6,t,b,False,1521,3,15108,testPhase
46,0,T3,t,a,False,714,3,15108,testPhase
47,0,T2,t,a,False,718,3,15108,testPhase
48,0,T6,t,b,False,686,3,15108,testPhase
49,0,T5,t,b,False,837,3,15108,testPhase
50,0,T2,t,a,False,1005,3,15108,testPhase
51,0,B9,b,b,True,1629,3,15108,testPhase
52,0,T0,t,a,False,781,3,15108,testPhase
53,0,A4,a,b,False,1146,3,15108,testPhase
54,0,B1,b,a,False,601,3,15108,testPhase
55,0,T4,t,b,False,565,3,15108,testPhase
56,0,T0,t,b,False,380,3,15108,testPhase
57,0,T1,t,a,False,574,3,15108,testPhase
58,0,B6,b,a,False,621,3,15108,testPhase
59,0,T4,t,a,False,373,3,15108,testPhase
60,0,T7,t,b,False,614,3,15108,testPhase
61,0,T5,t,b,False,958,3,15108,testPhase
62,0,A9,a,a,True,1061,3,15108,testPhase
63,0,T5,t,b,False,839,3,15108,testPhase
64,0,A1,a,a,True,1025,3,15108,testPhase
65,0,T11,t,a,False,958,3,15108,testPhase
66,0,B2,b,a,False,1349,3,15108,testPhase
67,0,T3,t,b,False,524,3,15108,testPhase
0,0,A2,a,a,True,2859,3,15113,testPhase
1,0,B4,b,b,True,3118,3,15113,testPhase
2,0,B11,b,b,True,993,3,15113,testPhase
3,0,T1,t,a,False,1093,3,15113,testPhase
4,0,T4,t,b,False,1559,3,15113,testPhase
5,0,T3,t,a,False,1299,3,15113,testPhase
6,0,T7,t,b,False,1630,3,15113,testPhase
7,0,T3,t,a,False,736,3,15113,testPhase
8,0,T1,t,a,False,758,3,15113,testPhase
9,0,T1,t,a,False,782,3,15113,testPhase
10,0,T3,t,a,False,902,3,15113,testPhase
11,0,T4,t,b,False,2333,3,15113,testPhase
12,0,T4,t,b,False,822,3,15113,testPhase
13,0,T2,t,a,False,780,3,15113,testPhase
14,0,T1,t,a,False,730,3,15113,testPhase
15,0,T5,t,b,False,925,3,15113,testPhase
16,0,A9,a,b,False,1885,3,15113,testPhase
17,0,A10,a,b,False,815,3,15113,testPhase
18,0,B9,b,b,True,1718,3,15113,testPhase
19,0,T1,t,a,False,910,3,15113,testPhase
20,0,B2,b,b,True,1545,3,15113,testPhase
21,0,T3,t,a,False,1166,3,15113,testPhase
22,0,A7,a,a,True,687,3,15113,testPhase
23,0,B3,b,b,True,935,3,15113,testPhase
24,0,B0,b,b,True,953,3,15113,testPhase
25,0,T5,t,b,False,1198,3,15113,testPhase
26,0,T5,t,b,False,630,3,15113,testPhase
27,0,T2,t,a,False,909,3,15113,testPhase
28,0,T5,t,b,False,1002,3,15113,testPhase
29,0,A5,a,a,True,1238,3,15113,testPhase
30,0,T6,t,b,False,2285,3,15113,testPhase
31,0,T3,t,a,False,911,3,15113,testPhase
32,0,B8,b,b,True,874,3,15113,testPhase
33,0,T7,t,b,False,1274,3,15113,testPhase
34,0,T8,t,b,False,1168,3,15113,testPhase
35,0,T0,t,a,False,933,3,15113,testPhase
36,0,T2,t,a,False,745,3,15113,testPhase
37,0,A8,a,b,False,1298,3,15113,testPhase
38,0,T6,t,b,False,1117,3,15113,testPhase
39,0,T4,t,b,False,715,3,15113,testPhase
40,0,T6,t,b,False,694,3,15113,testPhase
41,0,A1,a,a,True,784,3,15113,testPhase
42,0,B10,b,b,True,805,3,15113,testPhase
43,0,T0,t,a,False,877,3,15113,testPhase
44,0,T6,t,b,False,874,3,15113,testPhase
45,0,T4,t,b,False,981,3,15113,testPhase
46,0,B1,b,b,True,892,3,15113,testPhase
47,0,B5,b,b,True,677,3,15113,testPhase
48,0,T0,t,a,False,1073,3,15113,testPhase
49,0,A6,a,a,True,732,3,15113,testPhase
50,0,T7,t,b,False,773,3,15113,testPhase
51,0,A11,a,b,False,854,3,15113,testPhase
52,0,T0,t,a,False,1099,3,15113,testPhase
53,0,B6,b,b,True,976,3,15113,testPhase
54,0,T2,t,a,False,718,3,15113,testPhase
55,0,T6,t,b,False,814,3,15113,testPhase
56,0,T7,t,b,False,1045,3,15113,testPhase
57,0,T2,t,a,False,1203,3,15113,testPhase
58,0,A4,a,a,True,1199,3,15113,testPhase
59,0,T9,t,b,False,1083,3,15113,testPhase
60,0,B7,b,b,True,999,3,15113,testPhase
61,0,T5,t,b,False,775,3,15113,testPhase
62,0,T7,t,b,False,693,3,15113,testPhase
63,0,A0,a,a,True,801,3,15113,testPhase
64,0,T0,t,a,False,813,3,15113,testPhase
65,0,T10,t,b,False,985,3,15113,testPhase
66,0,T11,t,b,False,1497,3,15113,testPhase
67,0,A3,a,a,True,867,3,15113,testPhase
0,0,B6,b,b,True,2708,3,15118,testPhase
1,0,B4,b,b,True,1336,3,15118,testPhase
2,0,T2,t,a,False,939,3,15118,testPhase
3,0,T2,t,a,False,1367,3,15118,testPhase
4,0,T1,t,a,False,1047,3,15118,testPhase
5,0,A5,a,b,False,2839,3,15118,testPhase
6,0,B2,b,b,True,972,3,15118,testPhase
7,0,T5,t,b,False,891,3,15118,testPhase
8,0,B3,b,b,True,832,3,15118,testPhase
9,0,A1,a,a,True,1112,3,15118,testPhase
10,0,T6,t,b,False,1613,3,15118,testPhase
11,0,A4,a,a,True,2507,3,15118,testPhase
12,0,T4,t,b,False,919,3,15118,testPhase
13,0,B5,b,b,True,873,3,15118,testPhase
14,0,A7,a,a,True,1194,3,15118,testPhase
15,0,B7,b,b,True,2391,3,15118,testPhase
16,0,T6,t,b,False,1151,3,15118,testPhase
17,0,T1,t,a,False,1209,3,15118,testPhase
18,0,T3,t,a,False,1090,3,15118,testPhase
19,0,T0,t,a,False,1256,3,15118,testPhase
20,0,T0,t,a,False,1039,3,15118,testPhase
21,0,T0,t,a,False,931,3,15118,testPhase
22,0,A10,a,a,True,1433,3,15118,testPhase
23,0,T2,t,a,False,734,3,15118,testPhase
24,0,T11,t,a,False,1008,3,15118,testPhase
25,0,T5,t,b,False,1115,3,15118,testPhase
26,0,T5,t,b,False,1239,3,15118,testPhase
27,0,T10,t,a,False,6862,3,15118,testPhase
28,0,T7,t,b,False,1177,3,15118,testPhase
29,0,B1,b,a,False,881,3,15118,testPhase
30,0,T0,t,a,False,888,3,15118,testPhase
31,0,T4,t,b,False,1059,3,15118,testPhase
32,0,A8,a,a,True,1033,3,15118,testPhase
33,0,B9,b,b,True,2346,3,15118,testPhase
34,0,A0,a,a,True,882,3,15118,testPhase
35,0,T2,t,a,False,780,3,15118,testPhase
36,0,T3,t,a,False,761,3,15118,testPhase
37,0,T4,t,b,False,808,3,15118,testPhase
38,0,T8,t,b,False,2174,3,15118,testPhase
39,0,T4,t,b,False,933,3,15118,testPhase
40,0,B0,b,a,False,1438,3,15118,testPhase
41,0,T3,t,a,False,1165,3,15118,testPhase
42,0,T1,t,a,False,1022,3,15118,testPhase
43,0,B8,b,b,True,1710,3,15118,testPhase
44,0,T1,t,a,False,899,3,15118,testPhase
45,0,T9,t,a,False,2081,3,15118,testPhase
46,0,A3,a,a,True,1283,3,15118,testPhase
47,0,T7,t,b,False,924,3,15118,testPhase
48,0,A11,a,a,True,1792,3,15118,testPhase
49,0,T7,t,b,False,895,3,15118,testPhase
50,0,T6,t,b,False,1119,3,15118,testPhase
51,0,T5,t,b,False,841,3,15118,testPhase
52,0,T3,t,a,False,938,3,15118,testPhase
53,0,B10,b,b,True,940,3,15118,testPhase
54,0,T5,t,b,False,887,3,15118,testPhase
55,0,T0,t,a,False,951,3,15118,testPhase
56,0,T4,t,b,False,894,3,15118,testPhase
57,0,T1,t,a,False,960,3,15118,testPhase
58,0,T7,t,b,False,1145,3,15118,testPhase
59,0,B11,b,b,True,1320,3,15118,testPhase
60,0,T3,t,a,False,1221,3,15118,testPhase
61,0,T7,t,b,False,1686,3,15118,testPhase
62,0,T6,t,b,False,922,3,15118,testPhase
63,0,T6,t,b,False,603,3,15118,testPhase
64,0,A9,a,a,True,3602,3,15118,testPhase
65,0,T2,t,a,False,1543,3,15118,testPhase
66,0,A2,a,a,True,1011,3,15118,testPhase
67,0,A6,a,a,True,1083,3,15118,testPhase
0,0,A5,a,b,False,3026,3,15123,testPhase
1,0,B6,b,b,True,1542,3,15123,testPhase
2,0,A3,a,a,True,893,3,15123,testPhase
3,0,A10,a,a,True,1462,3,15123,testPhase
4,0,A7,a,a,True,1077,3,15123,testPhase
5,0,B11,b,b,True,1385,3,15123,testPhase
6,0,T2,t,a,False,1271,3,15123,testPhase
7,0,T10,t,b,False,4661,3,15123,testPhase
8,0,T6,t,b,False,991,3,15123,testPhase
9,0,T5,t,b,False,919,3,15123,testPhase
10,0,T7,t,b,False,1202,3,15123,testPhase
11,0,T5,t,b,False,1161,3,15123,testPhase
12,0,T0,t,a,False,788,3,15123,testPhase
13,0,A8,a,a,True,758,3,15123,testPhase
14,0,T0,t,a,False,887,3,15123,testPhase
15,0,T0,t,a,False,807,3,15123,testPhase
16,0,T7,t,b,False,1851,3,15123,testPhase
17,0,T2,t,a,False,1026,3,15123,testPhase
18,0,B9,b,b,True,1180,3,15123,testPhase
19,0,T3,t,a,False,887,3,15123,testPhase
20,0,T3,t,a,False,915,3,15123,testPhase
21,0,A0,a,a,True,1436,3,15123,testPhase
22,0,T6,t,b,False,2399,3,15123,testPhase
23,0,T3,t,a,False,859,3,15123,testPhase
24,0,B10,b,b,True,1291,3,15123,testPhase
25,0,B4,b,b,True,1580,3,15123,testPhase
26,0,T5,t,b,False,1618,3,15123,testPhase
27,0,T11,t,a,False,887,3,15123,testPhase
28,0,B0,b,a,False,1312,3,15123,testPhase
29,0,T4,t,b,False,1426,3,15123,testPhase
30,0,T2,t,a,False,778,3,15123,testPhase
31,0,T6,t,b,False,1869,3,15123,testPhase
32,0,B8,b,b,True,2143,3,15123,testPhase
33,0,A1,a,a,True,992,3,15123,testPhase
34,0,A6,a,a,True,955,3,15123,testPhase
35,0,T6,t,b,False,1273,3,15123,testPhase
36,0,T1,t,a,False,859,3,15123,testPhase
37,0,B7,b,b,True,1845,3,15123,testPhase
38,0,T5,t,b,False,993,3,15123,testPhase
39,0,T1,t,a,False,1029,3,15123,testPhase
40,0,T1,t,a,False,731,3,15123,testPhase
41,0,T3,t,a,False,699,3,15123,testPhase
42,0,T2,t,a,False,741,3,15123,testPhase
43,0,B1,b,b,True,14532,3,15123,testPhase
44,0,T4,t,b,False,971,3,15123,testPhase
45,0,T7,t,b,False,733,3,15123,testPhase
46,0,T1,t,a,False,806,3,15123,testPhase
47,0,T4,t,b,False,1270,3,15123,testPhase
48,0,A4,a,b,False,7918,3,15123,testPhase
49,0,B5,b,b,True,854,3,15123,testPhase
50,0,T7,t,b,False,664,3,15123,testPhase
51,0,T2,t,a,False,807,3,15123,testPhase
52,0,T6,t,b,False,1486,3,15123,testPhase
53,0,A2,a,a,True,1194,3,15123,testPhase
54,0,T5,t,b,False,2462,3,15123,testPhase
55,0,T7,t,b,False,1151,3,15123,testPhase
56,0,B2,b,a,False,1067,3,15123,testPhase
57,0,T8,t,b,False,1819,3,15123,testPhase
58,0,T4,t,b,False,1000,3,15123,testPhase
59,0,T3,t,a,False,951,3,15123,testPhase
60,0,T9,t,a,False,2838,3,15123,testPhase
61,0,T0,t,a,False,1295,3,15123,testPhase
62,0,A11,a,b,False,5371,3,15123,testPhase
63,0,B3,b,b,True,1088,3,15123,testPhase
64,0,T4,t,b,False,1078,3,15123,testPhase
65,0,A9,a,a,True,1052,3,15123,testPhase
66,0,T1,t,a,False,896,3,15123,testPhase
67,0,T0,t,a,False,704,3,15123,testPhase
0,0,A1,a,a,True,2767,3,15128,testPhase
1,0,T6,t,b,False,5566,3,15128,testPhase
2,0,B1,b,a,False,1543,3,15128,testPhase
3,0,T5,t,b,False,1403,3,15128,testPhase
4,0,B2,b,a,False,2065,3,15128,testPhase
5,0,B3,b,b,True,1239,3,15128,testPhase
6,0,T6,t,a,False,1652,3,15128,testPhase
7,0,B10,b,b,True,1476,3,15128,testPhase
8,0,T0,t,a,False,1693,3,15128,testPhase
9,0,T5,t,a,False,1633,3,15128,testPhase
10,0,B9,b,b,True,1027,3,15128,testPhase
11,0,B8,b,b,True,756,3,15128,testPhase
12,0,A9,a,a,True,1273,3,15128,testPhase
13,0,T2,t,a,False,1434,3,15128,testPhase
14,0,T2,t,a,False,911,3,15128,testPhase
15,0,A0,a,a,True,1161,3,15128,testPhase
16,0,T7,t,a,False,2038,3,15128,testPhase
17,0,B4,b,b,True,782,3,15128,testPhase
18,0,A8,a,b,False,910,3,15128,testPhase
19,0,T6,t,b,False,1219,3,15128,testPhase
20,0,T3,t,b,False,946,3,15128,testPhase
21,0,T4,t,a,False,1773,3,15128,testPhase
22,0,A6,a,a,True,1575,3,15128,testPhase
23,0,T3,t,b,False,814,3,15128,testPhase
24,0,T8,t,b,False,972,3,15128,testPhase
25,0,T2,t,b,False,1883,3,15128,testPhase
26,0,B11,b,b,True,1695,3,15128,testPhase
27,0,A5,a,a,True,1539,3,15128,testPhase
28,0,T6,t,b,False,1315,3,15128,testPhase
29,0,T3,t,b,False,1342,3,15128,testPhase
30,0,T7,t,a,False,1117,3,15128,testPhase
31,0,T4,t,a,False,1166,3,15128,testPhase
32,0,T4,t,b,False,1078,3,15128,testPhase
33,0,A2,a,a,True,1171,3,15128,testPhase
34,0,T0,t,b,False,1239,3,15128,testPhase
35,0,T5,t,a,False,1113,3,15128,testPhase
36,0,T4,t,b,False,1079,3,15128,testPhase
37,0,T5,t,b,False,2888,3,15128,testPhase
38,0,T2,t,b,False,1954,3,15128,testPhase
39,0,T1,t,b,False,894,3,15128,testPhase
40,0,T0,t,b,False,2371,3,15128,testPhase
41,0,B6,b,b,True,1215,3,15128,testPhase
42,0,T7,t,a,False,5373,3,15128,testPhase
43,0,T1,t,b,False,975,3,15128,testPhase
44,0,T2,t,b,False,822,3,15128,testPhase
45,0,T7,t,a,False,1135,3,15128,testPhase
46,0,T11,t,a,False,1578,3,15128,testPhase
47,0,A10,a,a,True,996,3,15128,testPhase
48,0,T3,t,b,False,1990,3,15128,testPhase
49,0,A7,a,a,True,1497,3,15128,testPhase
50,0,T9,t,a,False,1167,3,15128,testPhase
51,0,T0,t,b,False,1383,3,15128,testPhase
52,0,T10,t,b,False,1790,3,15128,testPhase
53,0,B5,b,b,True,1546,3,15128,testPhase
54,0,A3,a,a,True,951,3,15128,testPhase
55,0,T1,t,b,False,1241,3,15128,testPhase
56,0,T1,t,b,False,953,3,15128,testPhase
57,0,T4,t,b,False,1271,3,15128,testPhase
58,0,B0,b,b,True,991,3,15128,testPhase
59,0,A11,a,b,False,990,3,15128,testPhase
60,0,T7,t,a,False,1409,3,15128,testPhase
61,0,T0,t,b,False,950,3,15128,testPhase
62,0,T1,t,b,False,922,3,15128,testPhase
63,0,T6,t,a,False,1032,3,15128,testPhase
64,0,B7,b,b,True,916,3,15128,testPhase
65,0,A4,a,a,True,1004,3,15128,testPhase
66,0,T3,t,b,False,863,3,15128,testPhase
67,0,T5,t,a,False,1214,3,15128,testPhase
0,0,T4,t,b,False,2749,3,15133,testPhase
1,0,T5,t,b,False,897,3,15133,testPhase
2,0,B1,b,b,True,1014,3,15133,testPhase
3,0,T6,t,b,False,933,3,15133,testPhase
4,0,B2,b,b,True,949,3,15133,testPhase
5,0,T5,t,b,False,864,3,15133,testPhase
6,0,T0,t,a,False,1295,3,15133,testPhase
7,0,B5,b,b,True,917,3,15133,testPhase
8,0,T0,t,a,False,1103,3,15133,testPhase
9,0,A8,a,a,True,1158,3,15133,testPhase
10,0,T1,t,a,False,1117,3,15133,testPhase
11,0,T1,t,a,False,1006,3,15133,testPhase
12,0,T0,t,a,False,798,3,15133,testPhase
13,0,A6,a,a,True,797,3,15133,testPhase
14,0,B6,b,b,True,1206,3,15133,testPhase
15,0,A7,a,a,True,1036,3,15133,testPhase
16,0,T6,t,b,False,1070,3,15133,testPhase
17,0,A9,a,b,False,1326,3,15133,testPhase
18,0,B10,b,b,True,1030,3,15133,testPhase
19,0,T0,t,a,False,1039,3,15133,testPhase
20,0,T3,t,a,False,1678,3,15133,testPhase
21,0,T6,t,b,False,1152,3,15133,testPhase
22,0,T7,t,b,False,4720,3,15133,testPhase
23,0,T6,t,b,False,920,3,15133,testPhase
24,0,A4,a,b,False,1124,3,15133,testPhase
25,0,A2,a,a,True,999,3,15133,testPhase
26,0,A3,a,a,True,1147,3,15133,testPhase
27,0,T7,t,b,False,949,3,15133,testPhase
28,0,B4,b,b,True,1054,3,15133,testPhase
29,0,T2,t,a,False,1008,3,15133,testPhase
30,0,T9,t,b,False,3982,3,15133,testPhase
31,0,B8,b,b,True,873,3,15133,testPhase
32,0,T1,t,a,False,1165,3,15133,testPhase
33,0,T2,t,a,False,1013,3,15133,testPhase
34,0,A5,a,a,True,2083,3,15133,testPhase
35,0,T4,t,b,False,1020,3,15133,testPhase
36,0,A0,a,a,True,1014,3,15133,testPhase
37,0,T3,t,a,False,973,3,15133,testPhase
38,0,T5,t,b,False,1013,3,15133,testPhase
39,0,T5,t,b,False,917,3,15133,testPhase
40,0,T2,t,a,False,1101,3,15133,testPhase
41,0,B9,b,b,True,1213,3,15133,testPhase
42,0,T4,t,b,False,873,3,15133,testPhase
43,0,B7,b,b,True,1918,3,15133,testPhase
44,0,T4,t,b,False,853,3,15133,testPhase
45,0,T6,t,b,False,818,3,15133,testPhase
46,0,T7,t,b,False,887,3,15133,testPhase
47,0,T0,t,a,False,1142,3,15133,testPhase
48,0,T8,t,b,False,4047,3,15133,testPhase
49,0,B0,b,b,True,974,3,15133,testPhase
50,0,A11,a,b,False,2808,3,15133,testPhase
51,0,T3,t,a,False,965,3,15133,testPhase
52,0,B3,b,b,True,1377,3,15133,testPhase
53,0,T2,t,a,False,994,3,15133,testPhase
54,0,A10,a,b,False,1991,3,15133,testPhase
55,0,T3,t,a,False,974,3,15133,testPhase
56,0,A1,a,a,True,1379,3,15133,testPhase
57,0,T7,t,b,False,912,3,15133,testPhase
58,0,T1,t,a,False,878,3,15133,testPhase
59,0,T1,t,a,False,926,3,15133,testPhase
60,0,T2,t,a,False,751,3,15133,testPhase
61,0,B11,b,b,True,1014,3,15133,testPhase
62,0,T7,t,b,False,1334,3,15133,testPhase
63,0,T11,t,a,False,2135,3,15133,testPhase
64,0,T4,t,b,False,781,3,15133,testPhase
65,0,T5,t,b,False,749,3,15133,testPhase
66,0,T3,t,a,False,1406,3,15133,testPhase
67,0,T10,t,b,False,1989,3,15133,testPhase
0,0,T6,t,a,False,3246,3,15138,testPhase
1,0,A6,a,a,True,1287,3,15138,testPhase
2,0,T2,t,b,False,3042,3,15138,testPhase
3,0,T2,t,b,False,869,3,15138,testPhase
4,0,A8,a,a,True,1653,3,15138,testPhase
5,0,T5,t,a,False,2182,3,15138,testPhase
6,0,T4,t,b,False,1002,3,15138,testPhase
7,0,T5,t,b,False,757,3,15138,testPhase
8,0,B4,b,b,True,626,3,15138,testPhase
9,0,B0,b,b,True,1004,3,15138,testPhase
10,0,T3,t,b,False,1054,3,15138,testPhase
11,0,T10,t,a,False,1928,3,15138,testPhase
12,0,A0,a,a,True,951,3,15138,testPhase
13,0,T6,t,a,False,989,3,15138,testPhase
14,0,B11,b,b,True,1037,3,15138,testPhase
15,0,T1,t,a,False,1757,3,15138,testPhase
16,0,T1,t,b,False,2120,3,15138,testPhase
17,0,B2,b,b,True,1525,3,15138,testPhase
18,0,T4,t,b,False,1370,3,15138,testPhase
19,0,A9,a,b,False,1377,3,15138,testPhase
20,0,T5,t,a,False,1603,3,15138,testPhase
21,0,T8,t,a,False,949,3,15138,testPhase
22,0,T9,t,a,False,942,3,15138,testPhase
23,0,B6,b,b,True,862,3,15138,testPhase
24,0,A2,a,a,True,962,3,15138,testPhase
25,0,T11,t,a,False,1085,3,15138,testPhase
26,0,T0,t,a,False,998,3,15138,testPhase
27,0,T4,t,a,False,1337,3,15138,testPhase
28,0,T3,t,b,False,1510,3,15138,testPhase
29,0,T7,t,a,False,890,3,15138,testPhase
30,0,A7,a,a,True,1527,3,15138,testPhase
31,0,T1,t,a,False,3569,3,15138,testPhase
32,0,T1,t,b,False,710,3,15138,testPhase
33,0,T3,t,b,False,1292,3,15138,testPhase
34,0,B10,b,b,True,763,3,15138,testPhase
35,0,T4,t,a,False,898,3,15138,testPhase
36,0,A3,a,a,True,1059,3,15138,testPhase
37,0,T5,t,b,False,1222,3,15138,testPhase
38,0,T0,t,a,False,1239,3,15138,testPhase
39,0,T3,t,b,False,1460,3,15138,testPhase
40,0,B5,b,b,True,814,3,15138,testPhase
41,0,T2,t,b,False,1329,3,15138,testPhase
42,0,A1,a,a,True,1971,3,15138,testPhase
43,0,T0,t,a,False,901,3,15138,testPhase
44,0,T0,t,a,False,787,3,15138,testPhase
45,0,A5,a,a,True,1098,3,15138,testPhase
46,0,B7,b,b,True,1247,3,15138,testPhase
47,0,B8,b,b,True,614,3,15138,testPhase
48,0,B3,b,b,True,485,3,15138,testPhase
49,0,T4,t,b,False,853,3,15138,testPhase
50,0,A10,a,b,False,1354,3,15138,testPhase
51,0,A4,a,a,True,808,3,15138,testPhase
52,0,T3,t,b,False,1275,3,15138,testPhase
53,0,T6,t,a,False,1244,3,15138,testPhase
54,0,A11,a,b,False,1310,3,15138,testPhase
55,0,T2,t,b,False,902,3,15138,testPhase
56,0,T7,t,a,False,796,3,15138,testPhase
57,0,B9,b,b,True,1081,3,15138,testPhase
58,0,T0,t,a,False,1372,3,15138,testPhase
59,0,B1,b,a,False,1092,3,15138,testPhase
60,0,T1,t,a,False,982,3,15138,testPhase
61,0,T7,t,b,False,871,3,15138,testPhase
62,0,T6,t,a,False,878,3,15138,testPhase
63,0,T5,t,a,False,891,3,15138,testPhase
64,0,T6,t,a,False,536,3,15138,testPhase
65,0,T7,t,a,False,582,3,15138,testPhase
66,0,T2,t,b,False,1206,3,15138,testPhase
67,0,T7,t,a,False,855,3,15138,testPhase
0,0,A1,a,a,True,1213,3,15143,testPhase
1,0,A2,a,a,True,1494,3,15143,testPhase
2,0,T2,t,b,False,861,3,15143,testPhase
3,0,T3,t,b,False,661,3,15143,testPhase
4,0,T0,t,a,False,1059,3,15143,testPhase
5,0,B7,b,b,True,1033,3,15143,testPhase
6,0,T11,t,a,False,1880,3,15143,testPhase
7,0,T10,t,a,False,818,3,15143,testPhase
8,0,T0,t,b,False,998,3,15143,testPhase
9,0,B11,b,b,True,863,3,15143,testPhase
10,0,B10,b,b,True,777,3,15143,testPhase
11,0,T1,t,b,False,2164,3,15143,testPhase
12,0,T6,t,a,False,1049,3,15143,testPhase
13,0,T6,t,a,False,605,3,15143,testPhase
14,0,T2,t,b,False,1331,3,15143,testPhase
15,0,T7,t,a,False,821,3,15143,testPhase
16,0,B3,b,b,True,1109,3,15143,testPhase
17,0,T7,t,a,False,1092,3,15143,testPhase
18,0,T5,t,a,False,1565,3,15143,testPhase
19,0,A5,a,a,True,1107,3,15143,testPhase
20,0,T4,t,a,False,1893,3,15143,testPhase
21,0,T5,t,a,False,1193,3,15143,testPhase
22,0,T0,t,b,False,755,3,15143,testPhase
23,0,T1,t,b,False,1183,3,15143,testPhase
24,0,T4,t,b,False,1543,3,15143,testPhase
25,0,T5,t,a,False,1071,3,15143,testPhase
26,0,T3,t,b,False,1241,3,15143,testPhase
27,0,B2,b,b,True,968,3,15143,testPhase
28,0,B9,b,b,True,770,3,15143,testPhase
29,0,T8,t,a,False,876,3,15143,testPhase
30,0,A11,a,a,True,1355,3,15143,testPhase
31,0,B4,b,b,True,1056,3,15143,testPhase
32,0,T0,t,a,False,2741,3,15143,testPhase
33,0,T6,t,a,False,924,3,15143,testPhase
34,0,A3,a,a,True,886,3,15143,testPhase
35,0,B0,b,b,True,2742,3,15143,testPhase
36,0,T6,t,a,False,817,3,15143,testPhase
37,0,T1,t,b,False,806,3,15143,testPhase
38,0,T9,t,b,False,994,3,15143,testPhase
39,0,T2,t,b,False,656,3,15143,testPhase
40,0,T3,t,b,False,862,3,15143,testPhase
41,0,T1,t,b,False,982,3,15143,testPhase
42,0,B1,b,b,True,809,3,15143,testPhase
43,0,T4,t,a,False,1269,3,15143,testPhase
44,0,T0,t,b,False,2202,3,15143,testPhase
45,0,T4,t,b,False,1994,3,15143,testPhase
46,0,T4,t,b,False,854,3,15143,testPhase
47,0,B6,b,b,True,1200,3,15143,testPhase
48,0,A4,a,a,True,974,3,15143,testPhase
49,0,A8,a,a,True,1709,3,15143,testPhase
50,0,T3,t,b,False,1098,3,15143,testPhase
51,0,T5,t,a,False,1644,3,15143,testPhase
52,0,A6,a,a,True,1362,3,15143,testPhase
53,0,T3,t,b,False,925,3,15143,testPhase
54,0,A9,a,a,True,1733,3,15143,testPhase
55,0,A7,a,a,True,1853,3,15143,testPhase
56,0,T7,t,a,False,775,3,15143,testPhase
57,0,B5,b,b,True,1039,3,15143,testPhase
58,0,T2,t,b,False,639,3,15143,testPhase
59,0,A0,a,a,True,877,3,15143,testPhase
60,0,T7,t,a,False,851,3,15143,testPhase
61,0,A10,a,b,False,1808,3,15143,testPhase
62,0,T2,t,b,False,1102,3,15143,testPhase
63,0,T1,t,b,False,692,3,15143,testPhase
64,0,T7,t,a,False,773,3,15143,testPhase
65,0,B8,b,b,True,773,3,15143,testPhase
66,0,T5,t,a,False,1250,3,15143,testPhase
67,0,T6,t,a,False,1229,3,15143,testPhase
0,0,T0,t,a,False,4287,3,15148,testPhase
1,0,A1,a,a,True,1239,3,15148,testPhase
2,0,T0,t,b,False,3257,3,15148,testPhase
3,0,T7,t,b,False,2669,3,15148,testPhase
4,0,T5,t,b,False,1008,3,15148,testPhase
5,0,T2,t,b,False,1686,3,15148,testPhase
6,0,B9,b,b,True,919,3,15148,testPhase
7,0,T6,t,b,False,1532,3,15148,testPhase
8,0,T7,t,b,False,1542,3,15148,testPhase
9,0,T0,t,b,False,2295,3,15148,testPhase
10,0,B4,b,b,True,2595,3,15148,testPhase
11,0,T11,t,b,False,2524,3,15148,testPhase
12,0,T4,t,b,False,2229,3,15148,testPhase
13,0,A8,a,b,False,2504,3,15148,testPhase
14,0,T4,t,b,False,2663,3,15148,testPhase
15,0,A9,a,a,True,972,3,15148,testPhase
16,0,T9,t,a,False,683,3,15148,testPhase
17,0,T5,t,b,False,780,3,15148,testPhase
18,0,T0,t,a,False,870,3,15148,testPhase
19,0,T3,t,b,False,1605,3,15148,testPhase
20,0,A0,a,a,True,994,3,15148,testPhase
21,0,B11,b,b,True,831,3,15148,testPhase
22,0,T1,t,b,False,1352,3,15148,testPhase
23,0,T1,t,b,False,853,3,15148,testPhase
24,0,T1,t,b,False,887,3,15148,testPhase
25,0,T4,t,b,False,1353,3,15148,testPhase
26,0,A10,a,a,True,1198,3,15148,testPhase
27,0,T3,t,b,False,828,3,15148,testPhase
28,0,B8,b,b,True,792,3,15148,testPhase
29,0,T6,t,b,False,1167,3,15148,testPhase
30,0,A4,a,a,True,1094,3,15148,testPhase
31,0,T1,t,b,False,937,3,15148,testPhase
32,0,T2,t,b,False,829,3,15148,testPhase
33,0,T2,t,b,False,745,3,15148,testPhase
34,0,T7,t,b,False,1212,3,15148,testPhase
35,0,T0,t,a,False,1443,3,15148,testPhase
36,0,T3,t,b,False,856,3,15148,testPhase
37,0,B7,b,b,True,1781,3,15148,testPhase
38,0,T8,t,a,False,2554,3,15148,testPhase
39,0,T6,t,b,False,1083,3,15148,testPhase
40,0,A11,a,a,True,1079,3,15148,testPhase
41,0,B2,b,a,False,1271,3,15148,testPhase
42,0,A5,a,a,True,1032,3,15148,testPhase
43,0,T5,t,b,False,1064,3,15148,testPhase
44,0,B10,b,b,True,911,3,15148,testPhase
45,0,A2,a,a,True,774,3,15148,testPhase
46,0,A3,a,a,True,880,3,15148,testPhase
47,0,T7,t,b,False,1502,3,15148,testPhase
48,0,T2,t,b,False,1186,3,15148,testPhase
49,0,B5,b,b,True,1871,3,15148,testPhase
50,0,T4,t,b,False,734,3,15148,testPhase
51,0,T10,t,a,False,1033,3,15148,testPhase
52,0,T3,t,b,False,849,3,15148,testPhase
53,0,T6,t,b,False,1225,3,15148,testPhase
54,0,A6,a,a,True,882,3,15148,testPhase
55,0,T2,t,b,False,699,3,15148,testPhase
56,0,T5,t,b,False,962,3,15148,testPhase
57,0,T7,t,b,False,804,3,15148,testPhase
58,0,B6,b,b,True,1839,3,15148,testPhase
59,0,B3,b,b,True,1096,3,15148,testPhase
60,0,T6,t,a,False,1795,3,15148,testPhase
61,0,B1,b,b,True,1303,3,15148,testPhase
62,0,T1,t,b,False,880,3,15148,testPhase
63,0,T4,t,b,False,1333,3,15148,testPhase
64,0,T5,t,b,False,941,3,15148,testPhase
65,0,A7,a,a,True,1975,3,15148,testPhase
66,0,B0,b,b,True,901,3,15148,testPhase
67,0,T3,t,b,False,881,3,15148,testPhase
0,0,T1,t,a,False,1774,3,15153,testPhase
1,0,T2,t,a,False,1198,3,15153,testPhase
2,0,T0,t,a,False,941,3,15153,testPhase
3,0,B7,b,b,True,890,3,15153,testPhase
4,0,A6,a,a,True,806,3,15153,testPhase
5,0,T0,t,a,False,955,3,15153,testPhase
6,0,T6,t,b,False,926,3,15153,testPhase
7,0,T6,t,b,False,1022,3,15153,testPhase
8,0,T3,t,b,False,3614,3,15153,testPhase
9,0,T3,t,b,False,905,3,15153,testPhase
10,0,T7,t,b,False,861,3,15153,testPhase
11,0,T0,t,b,False,1367,3,15153,testPhase
12,0,A11,a,b,False,1191,3,15153,testPhase
13,0,T1,t,a,False,733,3,15153,testPhase
14,0,T4,t,b,False,885,3,15153,testPhase
15,0,B9,b,b,True,1006,3,15153,testPhase
16,0,T4,t,b,False,708,3,15153,testPhase
17,0,T4,t,b,False,637,3,15153,testPhase
18,0,T10,t,b,False,2000,3,15153,testPhase
19,0,A10,a,b,False,982,3,15153,testPhase
20,0,A1,a,a,True,1638,3,15153,testPhase
21,0,T11,t,a,False,798,3,15153,testPhase
22,0,T6,t,b,False,862,3,15153,testPhase
23,0,B0,b,a,False,953,3,15153,testPhase
24,0,A8,a,a,True,1138,3,15153,testPhase
25,0,T7,t,b,False,966,3,15153,testPhase
26,0,T4,t,b,False,694,3,15153,testPhase
27,0,T3,t,a,False,951,3,15153,testPhase
28,0,T1,t,a,False,574,3,15153,testPhase
29,0,T0,t,a,False,534,3,15153,testPhase
30,0,T3,t,a,False,597,3,15153,testPhase
31,0,T7,t,b,False,870,3,15153,testPhase
32,0,T2,t,a,False,1068,3,15153,testPhase
33,0,T5,t,b,False,870,3,15153,testPhase
34,0,T0,t,a,False,654,3,15153,testPhase
35,0,B5,b,b,True,533,3,15153,testPhase
36,0,T5,t,b,False,1109,3,15153,testPhase
37,0,T6,t,b,False,950,3,15153,testPhase
38,0,T2,t,a,False,981,3,15153,testPhase
39,0,T2,t,a,False,626,3,15153,testPhase
40,0,A5,a,b,False,829,3,15153,testPhase
41,0,T7,t,b,False,926,3,15153,testPhase
42,0,B4,b,b,True,734,3,15153,testPhase
43,0,T2,t,a,False,765,3,15153,testPhase
44,0,B6,b,b,True,856,3,15153,testPhase
45,0,T1,t,a,False,508,3,15153,testPhase
46,0,B10,b,b,True,614,3,15153,testPhase
47,0,A7,a,a,True,470,3,15153,testPhase
48,0,T1,t,a,False,934,3,15153,testPhase
49,0,B1,b,b,True,1270,3,15153,testPhase
50,0,B2,b,a,False,638,3,15153,testPhase
51,0,A3,a,a,True,887,3,15153,testPhase
52,0,T5,t,b,False,907,3,15153,testPhase
53,0,A2,a,a,True,719,3,15153,testPhase
54,0,T7,t,b,False,782,3,15153,testPhase
55,0,T5,t,b,False,935,3,15153,testPhase
56,0,T4,t,b,False,621,3,15153,testPhase
57,0,T9,t,a,False,1214,3,15153,testPhase
58,0,T5,t,b,False,853,3,15153,testPhase
59,0,A0,a,a,True,902,3,15153,testPhase
60,0,T8,t,b,False,1046,3,15153,testPhase
61,0,B11,b,b,True,998,3,15153,testPhase
62,0,B3,b,b,True,2222,3,15153,testPhase
63,0,A9,a,a,True,919,3,15153,testPhase
64,0,T3,t,a,False,894,3,15153,testPhase
65,0,B8,b,a,False,765,3,15153,testPhase
66,0,A4,a,a,True,718,3,15153,testPhase
67,0,T6,t,b,False,734,3,15153,testPhase
0,0,A3,a,a,True,1765,3,15158,testPhase
1,0,B11,b,b,True,986,3,15158,testPhase
2,0,A8,a,a,True,2508,3,15158,testPhase
3,0,T11,t,a,False,2271,3,15158,testPhase
4,0,T3,t,a,False,883,3,15158,testPhase
5,0,T4,t,b,False,926,3,15158,testPhase
6,0,A9,a,b,False,1633,3,15158,testPhase
7,0,T2,t,a,False,933,3,15158,testPhase
8,0,T2,t,a,False,759,3,15158,testPhase
9,0,A10,a,b,False,2189,3,15158,testPhase
10,0,B10,b,b,True,897,3,15158,testPhase
11,0,T6,t,b,False,1030,3,15158,testPhase
12,0,T8,t,b,False,1190,3,15158,testPhase
13,0,B5,b,b,True,817,3,15158,testPhase
14,0,B0,b,b,True,1915,3,15158,testPhase
15,0,T5,t,b,False,912,3,15158,testPhase
16,0,T0,t,a,False,806,3,15158,testPhase
17,0,T1,t,a,False,674,3,15158,testPhase
18,0,A2,a,a,True,773,3,15158,testPhase
19,0,T2,t,a,False,604,3,15158,testPhase
20,0,T0,t,a,False,725,3,15158,testPhase
21,0,T4,t,b,False,949,3,15158,testPhase
22,0,T7,t,b,False,786,3,15158,testPhase
23,0,B9,b,b,True,1064,3,15158,testPhase
24,0,T7,t,b,False,828,3,15158,testPhase
25,0,B4,b,b,True,895,3,15158,testPhase
26,0,T2,t,a,False,868,3,15158,testPhase
27,0,T0,t,a,False,685,3,15158,testPhase
28,0,A0,a,a,True,705,3,15158,testPhase
29,0,T5,t,b,False,1023,3,15158,testPhase
30,0,B6,b,b,True,1880,3,15158,testPhase
31,0,T5,t,b,False,786,3,15158,testPhase
32,0,A6,a,a,True,797,3,15158,testPhase
33,0,T0,t,a,False,475,3,15158,testPhase
34,0,T7,t,b,False,994,3,15158,testPhase
35,0,T5,t,b,False,1062,3,15158,testPhase
36,0,A4,a,a,True,1733,3,15158,testPhase
37,0,T3,t,a,False,763,3,15158,testPhase
38,0,B1,b,a,False,1941,3,15158,testPhase
39,0,B8,b,b,True,934,3,15158,testPhase
40,0,T7,t,b,False,851,3,15158,testPhase
41,0,T3,t,a,False,779,3,15158,testPhase
42,0,A7,a,a,True,513,3,15158,testPhase
43,0,A11,a,b,False,1807,3,15158,testPhase
44,0,T6,t,b,False,1534,3,15158,testPhase
45,0,T1,t,a,False,810,3,15158,testPhase
46,0,T4,t,b,False,974,3,15158,testPhase
47,0,B3,b,b,True,1910,3,15158,testPhase
48,0,T7,t,b,False,709,3,15158,testPhase
49,0,T10,t,b,False,1647,3,15158,testPhase
50,0,T6,t,b,False,714,3,15158,testPhase
51,0,T6,t,b,False,803,3,15158,testPhase
52,0,T3,t,a,False,750,3,15158,testPhase
53,0,B7,b,b,True,1227,3,15158,testPhase
54,0,T1,t,a,False,1208,3,15158,testPhase
55,0,T9,t,a,False,1727,3,15158,testPhase
56,0,T2,t,a,False,640,3,15158,testPhase
57,0,T6,t,b,False,904,3,15158,testPhase
58,0,A5,a,a,True,3646,3,15158,testPhase
59,0,T3,t,a,False,669,3,15158,testPhase
60,0,T4,t,b,False,782,3,15158,testPhase
61,0,T4,t,b,False,661,3,15158,testPhase
62,0,B2,b,b,True,943,3,15158,testPhase
63,0,T1,t,a,False,840,3,15158,testPhase
64,0,T0,t,a,False,514,3,15158,testPhase
65,0,T5,t,b,False,1301,3,15158,testPhase
66,0,A1,a,a,True,870,3,15158,testPhase
67,0,T1,t,a,False,493,3,15158,testPhase
0,0,T3,t,a,False,4594,3,15163,testPhase
1,0,T4,t,a,False,1686,3,15163,testPhase
2,0,T7,t,a,False,825,3,15163,testPhase
3,0,T11,t,b,False,3335,3,15163,testPhase
4,0,T10,t,b,False,861,3,15163,testPhase
5,0,T0,t,a,False,1319,3,15163,testPhase
6,0,T2,t,a,False,1197,3,15163,testPhase
7,0,T2,t,a,False,2588,3,15163,testPhase
8,0,B4,b,b,True,2153,3,15163,testPhase
9,0,T0,t,a,False,1235,3,15163,testPhase
10,0,T3,t,a,False,1073,3,15163,testPhase
11,0,T2,t,a,False,749,3,15163,testPhase
12,0,T6,t,a,False,1262,3,15163,testPhase
13,0,T2,t,b,False,2029,3,15163,testPhase
14,0,T8,t,b,False,1975,3,15163,testPhase
15,0,T5,t,a,False,4503,3,15163,testPhase
16,0,T1,t,b,False,933,3,15163,testPhase
17,0,T3,t,b,False,735,3,15163,testPhase
18,0,T4,t,b,False,2031,3,15163,testPhase
19,0,T1,t,b,False,1334,3,15163,testPhase
20,0,A0,a,a,True,1150,3,15163,testPhase
21,0,T9,t,b,False,860,3,15163,testPhase
22,0,T2,t,b,False,1322,3,15163,testPhase
23,0,T6,t,a,False,1518,3,15163,testPhase
24,0,B10,b,b,True,20718,3,15163,testPhase
25,0,T4,t,a,False,1504,3,15163,testPhase
26,0,B7,b,b,True,2278,3,15163,testPhase
27,0,A11,a,a,True,2253,3,15163,testPhase
28,0,A10,a,a,True,6523,3,15163,testPhase
29,0,A7,a,a,True,1036,3,15163,testPhase
30,0,T5,t,a,False,1423,3,15163,testPhase
31,0,T6,t,a,False,1229,3,15163,testPhase
32,0,A6,a,a,True,938,3,15163,testPhase
33,0,T0,t,b,False,1594,3,15163,testPhase
34,0,B9,b,b,True,1495,3,15163,testPhase
35,0,B3,b,b,True,1207,3,15163,testPhase
36,0,B0,b,b,True,1231,3,15163,testPhase
37,0,T1,t,b,False,749,3,15163,testPhase
38,0,T7,t,a,False,1019,3,15163,testPhase
39,0,T6,t,a,False,852,3,15163,testPhase
40,0,A9,a,a,True,3422,3,15163,testPhase
41,0,B5,b,b,True,1592,3,15163,testPhase
42,0,B11,b,b,True,2190,3,15163,testPhase
43,0,T0,t,a,False,1207,3,15163,testPhase
44,0,A1,a,a,True,1285,3,15163,testPhase
45,0,B2,b,b,True,856,3,15163,testPhase
46,0,T4,t,a,False,1819,3,15163,testPhase
47,0,A8,a,a,True,1171,3,15163,testPhase
48,0,A3,a,a,True,814,3,15163,testPhase
49,0,T7,t,a,False,873,3,15163,testPhase
50,0,T5,t,a,False,759,3,15163,testPhase
51,0,A2,a,a,True,600,3,15163,testPhase
52,0,A4,a,a,True,750,3,15163,testPhase
53,0,A5,a,a,True,563,3,15163,testPhase
54,0,B6,b,b,True,1086,3,15163,testPhase
55,0,T7,t,a,False,1190,3,15163,testPhase
56,0,B8,b,b,True,702,3,15163,testPhase
57,0,T3,t,b,False,2406,3,15163,testPhase
58,0,T4,t,a,False,6629,3,15163,testPhase
59,0,T5,t,a,False,813,3,15163,testPhase
60,0,T1,t,b,False,1014,3,15163,testPhase
61,0,T7,t,a,False,1631,3,15163,testPhase
62,0,T3,t,b,False,925,3,15163,testPhase
63,0,T1,t,b,False,1766,3,15163,testPhase
64,0,B1,b,b,True,2396,3,15163,testPhase
65,0,T6,t,a,False,862,3,15163,testPhase
66,0,T5,t,a,False,477,3,15163,testPhase
67,0,T0,t,b,False,929,3,15163,testPhase
0,0,T6,t,b,False,2896,3,15190,testPhase
1,0,T9,t,b,False,1002,3,15190,testPhase
2,0,B2,b,b,True,1394,3,15190,testPhase
3,0,T6,t,b,False,1902,3,15190,testPhase
4,0,A0,a,a,True,1130,3,15190,testPhase
5,0,B10,b,b,True,1179,3,15190,testPhase
6,0,T0,t,a,False,1080,3,15190,testPhase
7,0,T6,t,a,False,1523,3,15190,testPhase
8,0,T5,t,b,False,1530,3,15190,testPhase
9,0,T7,t,b,False,1024,3,15190,testPhase
10,0,B9,b,b,True,929,3,15190,testPhase
11,0,T5,t,b,False,1171,3,15190,testPhase
12,0,A4,a,a,True,2288,3,15190,testPhase
13,0,T1,t,a,False,1246,3,15190,testPhase
14,0,B6,b,b,True,1089,3,15190,testPhase
15,0,T4,t,b,False,974,3,15190,testPhase
16,0,B4,b,b,True,959,3,15190,testPhase
17,0,A7,a,a,True,911,3,15190,testPhase
18,0,T8,t,b,False,997,3,15190,testPhase
19,0,T0,t,a,False,948,3,15190,testPhase
20,0,A9,a,b,False,1080,3,15190,testPhase
21,0,B0,b,b,True,829,3,15190,testPhase
22,0,T2,t,a,False,895,3,15190,testPhase
23,0,T4,t,b,False,796,3,15190,testPhase
24,0,B1,b,b,True,730,3,15190,testPhase
25,0,T4,t,b,False,795,3,15190,testPhase
26,0,T0,t,a,False,779,3,15190,testPhase
27,0,B11,b,b,True,917,3,15190,testPhase
28,0,T1,t,a,False,935,3,15190,testPhase
29,0,T3,t,a,False,1243,3,15190,testPhase
30,0,T0,t,a,False,910,3,15190,testPhase
31,0,T3,t,a,False,814,3,15190,testPhase
32,0,A6,a,a,True,750,3,15190,testPhase
33,0,A3,a,a,True,1166,3,15190,testPhase
34,0,A2,a,a,True,829,3,15190,testPhase
35,0,B8,b,b,True,838,3,15190,testPhase
36,0,T2,t,a,False,828,3,15190,testPhase
37,0,T7,t,b,False,782,3,15190,testPhase
38,0,T6,t,b,False,765,3,15190,testPhase
39,0,T7,t,b,False,719,3,15190,testPhase
40,0,B5,b,b,True,780,3,15190,testPhase
41,0,T2,t,a,False,846,3,15190,testPhase
42,0,T3,t,a,False,765,3,15190,testPhase
43,0,T11,t,b,False,1562,3,15190,testPhase
44,0,T6,t,b,False,792,3,15190,testPhase
45,0,B7,b,b,True,797,3,15190,testPhase
46,0,T3,t,a,False,754,3,15190,testPhase
47,0,A5,a,a,True,1163,3,15190,testPhase
48,0,A11,a,a,True,2192,3,15190,testPhase
49,0,T1,t,a,False,896,3,15190,testPhase
50,0,T5,t,b,False,806,3,15190,testPhase
51,0,T5,t,b,False,674,3,15190,testPhase
52,0,T2,t,a,False,844,3,15190,testPhase
53,0,T1,t,a,False,760,3,15190,testPhase
54,0,T7,t,b,False,702,3,15190,testPhase
55,0,T5,t,b,False,681,3,15190,testPhase
56,0,A1,a,a,True,695,3,15190,testPhase
57,0,A8,a,a,True,1325,3,15190,testPhase
58,0,T4,t,b,False,921,3,15190,testPhase
59,0,T7,t,b,False,637,3,15190,testPhase
60,0,B3,b,b,True,1139,3,15190,testPhase
61,0,T3,t,a,False,860,3,15190,testPhase
62,0,T2,t,a,False,681,3,15190,testPhase
63,0,A10,a,b,False,1488,3,15190,testPhase
64,0,T0,t,a,False,1648,3,15190,testPhase
65,0,T1,t,a,False,529,3,15190,testPhase
66,0,T4,t,b,False,733,3,15190,testPhase
67,0,T10,t,b,False,730,3,15190,testPhase
0,0,T5,t,b,False,2804,3,15208,testPhase
1,0,T7,t,b,False,1597,3,15208,testPhase
2,0,T1,t,a,False,1022,3,15208,testPhase
3,0,T3,t,a,False,838,3,15208,testPhase
4,0,A10,a,a,True,1710,3,15208,testPhase
5,0,T2,t,a,False,1517,3,15208,testPhase
6,0,A3,a,a,True,1310,3,15208,testPhase
7,0,T7,t,b,False,1085,3,15208,testPhase
8,0,T7,t,b,False,1278,3,15208,testPhase
9,0,T6,t,b,False,1286,3,15208,testPhase
10,0,T5,t,b,False,853,3,15208,testPhase
11,0,B6,b,a,False,1854,3,15208,testPhase
12,0,T4,t,b,False,951,3,15208,testPhase
13,0,A0,a,a,True,1094,3,15208,testPhase
14,0,T1,t,a,False,958,3,15208,testPhase
15,0,B8,b,a,False,4933,3,15208,testPhase
16,0,T5,t,b,False,1530,3,15208,testPhase
17,0,T3,t,a,False,1054,3,15208,testPhase
18,0,T1,t,a,False,950,3,15208,testPhase
19,0,B4,b,b,True,2119,3,15208,testPhase
20,0,T10,t,a,False,1382,3,15208,testPhase
21,0,B2,b,b,True,1158,3,15208,testPhase
22,0,T5,t,b,False,1966,3,15208,testPhase
23,0,A2,a,a,True,1245,3,15208,testPhase
24,0,T0,t,a,False,1036,3,15208,testPhase
25,0,T0,t,a,False,1070,3,15208,testPhase
26,0,T1,t,a,False,893,3,15208,testPhase
27,0,T3,t,a,False,839,3,15208,testPhase
28,0,B3,b,b,True,2678,3,15208,testPhase
29,0,T4,t,b,False,733,3,15208,testPhase
30,0,T4,t,b,False,707,3,15208,testPhase
31,0,T3,t,a,False,1037,3,15208,testPhase
32,0,B11,b,b,True,964,3,15208,testPhase
33,0,B9,b,b,True,861,3,15208,testPhase
34,0,B7,b,a,False,2085,3,15208,testPhase
35,0,T6,t,b,False,2181,3,15208,testPhase
36,0,T7,t,b,False,725,3,15208,testPhase
37,0,A7,a,a,True,894,3,15208,testPhase
38,0,A1,a,a,True,823,3,15208,testPhase
39,0,T2,t,a,False,990,3,15208,testPhase
40,0,B0,b,a,False,1104,3,15208,testPhase
41,0,T11,t,a,False,765,3,15208,testPhase
42,0,T6,t,b,False,1351,3,15208,testPhase
43,0,A4,a,a,True,1185,3,15208,testPhase
44,0,T6,t,b,False,1460,3,15208,testPhase
45,0,T0,t,a,False,725,3,15208,testPhase
46,0,A9,a,a,True,2405,3,15208,testPhase
47,0,A6,a,a,True,910,3,15208,testPhase
48,0,B10,b,b,True,1134,3,15208,testPhase
49,0,T5,t,b,False,726,3,15208,testPhase
50,0,T2,t,a,False,1221,3,15208,testPhase
51,0,B1,b,a,False,3757,3,15208,testPhase
52,0,T0,t,a,False,862,3,15208,testPhase
53,0,T3,t,a,False,803,3,15208,testPhase
54,0,B5,b,b,True,1005,3,15208,testPhase
55,0,T0,t,a,False,982,3,15208,testPhase
56,0,A5,a,a,True,2258,3,15208,testPhase
57,0,T4,t,b,False,873,3,15208,testPhase
58,0,T8,t,b,False,869,3,15208,testPhase
59,0,T7,t,b,False,1615,3,15208,testPhase
60,0,A8,a,a,True,853,3,15208,testPhase
61,0,T1,t,a,False,883,3,15208,testPhase
62,0,T9,t,a,False,5797,3,15208,testPhase
63,0,T2,t,a,False,694,3,15208,testPhase
64,0,T2,t,a,False,559,3,15208,testPhase
65,0,A11,a,a,True,1812,3,15208,testPhase
66,0,T6,t,b,False,1036,3,15208,testPhase
67,0,T4,t,b,False,1478,3,15208,testPhase
0,0,T11,t,b,False,2622,3,15213,testPhase
1,0,T8,t,b,False,935,3,15213,testPhase
2,0,T1,t,b,False,905,3,15213,testPhase
3,0,T6,t,a,False,940,3,15213,testPhase
4,0,B10,b,b,True,925,3,15213,testPhase
5,0,A5,a,a,True,893,3,15213,testPhase
6,0,B2,b,a,False,782,3,15213,testPhase
7,0,T1,t,b,False,633,3,15213,testPhase
8,0,T3,t,b,False,644,3,15213,testPhase
9,0,A6,a,a,True,1163,3,15213,testPhase
10,0,T6,t,a,False,894,3,15213,testPhase
11,0,T0,t,b,False,904,3,15213,testPhase
12,0,A9,a,b,False,748,3,15213,testPhase
13,0,T5,t,b,False,1110,3,15213,testPhase
14,0,T3,t,b,False,1114,3,15213,testPhase
15,0,B11,b,b,True,1082,3,15213,testPhase
16,0,B6,b,b,True,1029,3,15213,testPhase
17,0,T3,t,b,False,771,3,15213,testPhase
18,0,B5,b,b,True,1423,3,15213,testPhase
19,0,B9,b,b,True,726,3,15213,testPhase
20,0,T5,t,a,False,1983,3,15213,testPhase
21,0,T10,t,b,False,1434,3,15213,testPhase
22,0,A3,a,a,True,840,3,15213,testPhase
23,0,T4,t,b,False,1151,3,15213,testPhase
24,0,T7,t,a,False,963,3,15213,testPhase
25,0,T2,t,b,False,677,3,15213,testPhase
26,0,T2,t,b,False,736,3,15213,testPhase
27,0,B7,b,b,True,878,3,15213,testPhase
28,0,T7,t,a,False,916,3,15213,testPhase
29,0,A0,a,a,True,911,3,15213,testPhase
30,0,T1,t,b,False,1670,3,15213,testPhase
31,0,T6,t,a,False,795,3,15213,testPhase
32,0,T1,t,b,False,861,3,15213,testPhase
33,0,A1,a,a,True,822,3,15213,testPhase
34,0,T4,t,a,False,2189,3,15213,testPhase
35,0,T0,t,b,False,711,3,15213,testPhase
36,0,A8,a,b,False,1078,3,15213,testPhase
37,0,T4,t,b,False,542,3,15213,testPhase
38,0,B0,b,b,True,815,3,15213,testPhase
39,0,A11,a,b,False,854,3,15213,testPhase
40,0,T5,t,a,False,1407,3,15213,testPhase
41,0,T4,t,b,False,1753,3,15213,testPhase
42,0,T5,t,b,False,1179,3,15213,testPhase
43,0,T7,t,a,False,1263,3,15213,testPhase
44,0,T3,t,b,False,2253,3,15213,testPhase
45,0,B1,b,b,True,922,3,15213,testPhase
46,0,T7,t,a,False,928,3,15213,testPhase
47,0,A7,a,a,True,2324,3,15213,testPhase
48,0,T0,t,a,False,1074,3,15213,testPhase
49,0,T2,t,b,False,831,3,15213,testPhase
50,0,B8,b,b,True,985,3,15213,testPhase
51,0,T1,t,b,False,822,3,15213,testPhase
52,0,T6,t,a,False,1041,3,15213,testPhase
53,0,A4,a,a,True,896,3,15213,testPhase
54,0,A10,a,a,True,971,3,15213,testPhase
55,0,T7,t,a,False,726,3,15213,testPhase
56,0,T2,t,b,False,1597,3,15213,testPhase
57,0,T0,t,b,False,623,3,15213,testPhase
58,0,B4,b,b,True,919,3,15213,testPhase
59,0,T9,t,b,False,756,3,15213,testPhase
60,0,T5,t,a,False,1109,3,15213,testPhase
61,0,A2,a,a,True,625,3,15213,testPhase
62,0,T4,t,a,False,956,3,15213,testPhase
63,0,T6,t,a,False,872,3,15213,testPhase
64,0,T2,t,b,False,848,3,15213,testPhase
65,0,B3,b,b,True,696,3,15213,testPhase
66,0,T0,t,b,False,705,3,15213,testPhase
67,0,T3,t,b,False,694,3,15213,testPhase
0,0,T1,t,a,False,2435,3,15224,testPhase
1,0,T6,t,b,False,1391,3,15224,testPhase
2,0,T4,t,b,False,1464,3,15224,testPhase
3,0,B4,b,b,True,1116,3,15224,testPhase
4,0,T1,t,a,False,785,3,15224,testPhase
5,0,T4,t,b,False,1217,3,15224,testPhase
6,0,B0,b,b,True,1890,3,15224,testPhase
7,0,T0,t,a,False,834,3,15224,testPhase
8,0,T0,t,a,False,860,3,15224,testPhase
9,0,T5,t,b,False,979,3,15224,testPhase
10,0,A9,a,b,False,1424,3,15224,testPhase
11,0,A4,a,b,False,1378,3,15224,testPhase
12,0,T3,t,a,False,679,3,15224,testPhase
13,0,B8,b,b,True,1100,3,15224,testPhase
14,0,T5,t,b,False,1232,3,15224,testPhase
15,0,T4,t,b,False,627,3,15224,testPhase
16,0,T2,t,a,False,748,3,15224,testPhase
17,0,T1,t,a,False,737,3,15224,testPhase
18,0,T4,t,b,False,1040,3,15224,testPhase
19,0,T4,t,b,False,627,3,15224,testPhase
20,0,T7,t,b,False,546,3,15224,testPhase
21,0,A10,a,a,True,1095,3,15224,testPhase
22,0,T10,t,a,False,914,3,15224,testPhase
23,0,B6,b,a,False,770,3,15224,testPhase
24,0,T5,t,b,False,1012,3,15224,testPhase
25,0,A5,a,b,False,1654,3,15224,testPhase
26,0,T7,t,b,False,793,3,15224,testPhase
27,0,T0,t,a,False,738,3,15224,testPhase
28,0,A11,a,b,False,1060,3,15224,testPhase
29,0,A0,a,a,True,698,3,15224,testPhase
30,0,T1,t,a,False,797,3,15224,testPhase
31,0,A3,a,a,True,1267,3,15224,testPhase
32,0,B11,b,b,True,772,3,15224,testPhase
33,0,T3,t,a,False,658,3,15224,testPhase
34,0,T0,t,a,False,870,3,15224,testPhase
35,0,T6,t,b,False,1177,3,15224,testPhase
36,0,T0,t,a,False,656,3,15224,testPhase
37,0,T9,t,b,False,1135,3,15224,testPhase
38,0,B5,b,b,True,951,3,15224,testPhase
39,0,T3,t,a,False,622,3,15224,testPhase
40,0,T2,t,a,False,611,3,15224,testPhase
41,0,T2,t,a,False,1016,3,15224,testPhase
42,0,B10,b,b,True,722,3,15224,testPhase
43,0,A8,a,a,True,1282,3,15224,testPhase
44,0,T1,t,a,False,1004,3,15224,testPhase
45,0,B3,b,b,True,698,3,15224,testPhase
46,0,T7,t,b,False,652,3,15224,testPhase
47,0,A1,a,a,True,629,3,15224,testPhase
48,0,B7,b,b,True,952,3,15224,testPhase
49,0,T2,t,a,False,670,3,15224,testPhase
50,0,T8,t,b,False,1130,3,15224,testPhase
51,0,T5,t,b,False,783,3,15224,testPhase
52,0,T2,t,a,False,758,3,15224,testPhase
53,0,B9,b,b,True,982,3,15224,testPhase
54,0,T3,t,a,False,739,3,15224,testPhase
55,0,T6,t,b,False,725,3,15224,testPhase
56,0,T3,t,a,False,662,3,15224,testPhase
57,0,A6,a,a,True,888,3,15224,testPhase
58,0,B1,b,a,False,1524,3,15224,testPhase
59,0,A7,a,a,True,818,3,15224,testPhase
60,0,T11,t,a,False,745,3,15224,testPhase
61,0,T6,t,b,False,875,3,15224,testPhase
62,0,T5,t,b,False,502,3,15224,testPhase
63,0,T7,t,b,False,462,3,15224,testPhase
64,0,T7,t,b,False,734,3,15224,testPhase
65,0,B2,b,b,True,1572,3,15224,testPhase
66,0,T6,t,b,False,692,3,15224,testPhase
67,0,A2,a,a,True,1125,3,15224,testPhase
0,0,T6,t,a,False,3243,3,15229,testPhase
1,0,T7,t,a,False,1148,3,15229,testPhase
2,0,A9,a,b,False,1259,3,15229,testPhase
3,0,T5,t,b,False,3306,3,15229,testPhase
4,0,B0,b,b,True,743,3,15229,testPhase
5,0,B6,b,b,True,1245,3,15229,testPhase
6,0,T3,t,b,False,2471,3,15229,testPhase
7,0,B1,b,a,False,1744,3,15229,testPhase
8,0,A3,a,a,True,1251,3,15229,testPhase
9,0,B2,b,b,True,965,3,15229,testPhase
10,0,A8,a,a,True,3972,3,15229,testPhase
11,0,A10,a,b,False,893,3,15229,testPhase
12,0,A7,a,a,True,4037,3,15229,testPhase
13,0,T4,t,b,False,812,3,15229,testPhase
14,0,T3,t,b,False,733,3,15229,testPhase
15,0,T6,t,a,False,1445,3,15229,testPhase
16,0,T5,t,a,False,1533,3,15229,testPhase
17,0,T5,t,a,False,2086,3,15229,testPhase
18,0,B11,b,b,True,936,3,15229,testPhase
19,0,T4,t,a,False,1220,3,15229,testPhase
20,0,T7,t,a,False,1281,3,15229,testPhase
21,0,T7,t,a,False,973,3,15229,testPhase
22,0,T5,t,b,False,973,3,15229,testPhase
23,0,T6,t,a,False,2805,3,15229,testPhase
24,0,T7,t,a,False,898,3,15229,testPhase
25,0,T11,t,b,False,925,3,15229,testPhase
26,0,A4,a,a,True,1178,3,15229,testPhase
27,0,T3,t,b,False,1347,3,15229,testPhase
28,0,T6,t,a,False,1310,3,15229,testPhase
29,0,T9,t,b,False,814,3,15229,testPhase
30,0,T2,t,b,False,1016,3,15229,testPhase
31,0,T4,t,b,False,1836,3,15229,testPhase
32,0,B8,b,b,True,813,3,15229,testPhase
33,0,T4,t,b,False,1240,3,15229,testPhase
34,0,A1,a,a,True,1252,3,15229,testPhase
35,0,T4,t,b,False,1869,3,15229,testPhase
36,0,T7,t,a,False,2205,3,15229,testPhase
37,0,B7,b,b,True,1365,3,15229,testPhase
38,0,T1,t,b,False,1203,3,15229,testPhase
39,0,T0,t,b,False,1267,3,15229,testPhase
40,0,T0,t,b,False,1326,3,15229,testPhase
41,0,T1,t,b,False,865,3,15229,testPhase
42,0,B4,b,a,False,2982,3,15229,testPhase
43,0,T1,t,b,False,2517,3,15229,testPhase
44,0,T3,t,b,False,882,3,15229,testPhase
45,0,A5,a,a,True,992,3,15229,testPhase
46,0,T6,t,a,False,1205,3,15229,testPhase
47,0,B3,b,b,True,1113,3,15229,testPhase
48,0,B9,b,b,True,961,3,15229,testPhase
49,0,T8,t,a,False,2757,3,15229,testPhase
50,0,T0,t,a,False,2747,3,15229,testPhase
51,0,T1,t,b,False,5465,3,15229,testPhase
52,0,T1,t,b,False,874,3,15229,testPhase
53,0,T5,t,a,False,5413,3,15229,testPhase
54,0,T2,t,b,False,1049,3,15229,testPhase
55,0,T0,t,b,False,869,3,15229,testPhase
56,0,A6,a,a,True,1898,3,15229,testPhase
57,0,T0,t,b,False,780,3,15229,testPhase
58,0,T3,t,b,False,756,3,15229,testPhase
59,0,B10,b,b,True,709,3,15229,testPhase
60,0,B5,b,a,False,1346,3,15229,testPhase
61,0,T2,t,b,False,671,3,15229,testPhase
62,0,T10,t,b,False,1250,3,15229,testPhase
63,0,T2,t,b,False,805,3,15229,testPhase
64,0,A0,a,a,True,1058,3,15229,testPhase
65,0,A2,a,a,True,933,3,15229,testPhase
66,0,T2,t,b,False,852,3,15229,testPhase
67,0,A11,a,b,False,3087,3,15229,testPhase
0,0,T5,t,a,False,7784,3,15281,testPhase
1,0,T3,t,b,False,1356,3,15281,testPhase
2,0,T0,t,b,False,1707,3,15281,testPhase
3,0,A4,a,a,True,2467,3,15281,testPhase
4,0,B9,b,b,True,1113,3,15281,testPhase
5,0,T1,t,b,False,1271,3,15281,testPhase
6,0,T5,t,a,False,1748,3,15281,testPhase
7,0,T8,t,b,False,3516,3,15281,testPhase
8,0,A3,a,a,True,1844,3,15281,testPhase
9,0,T3,t,b,False,1407,3,15281,testPhase
10,0,T6,t,a,False,1686,3,15281,testPhase
11,0,B4,b,b,True,2791,3,15281,testPhase
12,0,B3,b,b,True,2172,3,15281,testPhase
13,0,T6,t,a,False,1432,3,15281,testPhase
14,0,A6,a,a,True,764,3,15281,testPhase
15,0,T0,t,a,False,1635,3,15281,testPhase
16,0,B1,b,a,False,2687,3,15281,testPhase
17,0,B11,b,b,True,1150,3,15281,testPhase
18,0,T1,t,a,False,1738,3,15281,testPhase
19,0,T5,t,a,False,1478,3,15281,testPhase
20,0,T1,t,a,False,1279,3,15281,testPhase
21,0,T3,t,b,False,1232,3,15281,testPhase
22,0,T2,t,a,False,1745,3,15281,testPhase
23,0,B10,b,b,True,781,3,15281,testPhase
24,0,B8,b,b,True,838,3,15281,testPhase
25,0,T2,t,a,False,2293,3,15281,testPhase
26,0,A1,a,a,True,1374,3,15281,testPhase
27,0,T4,t,a,False,872,3,15281,testPhase
28,0,T4,t,a,False,701,3,15281,testPhase
29,0,T7,t,a,False,840,3,15281,testPhase
30,0,A10,a,a,True,3264,3,15281,testPhase
31,0,T10,t,a,False,1727,3,15281,testPhase
32,0,A9,a,a,True,1113,3,15281,testPhase
33,0,T4,t,a,False,889,3,15281,testPhase
34,0,B0,b,a,False,1007,3,15281,testPhase
35,0,A11,a,a,True,1049,3,15281,testPhase
36,0,T4,t,a,False,971,3,15281,testPhase
37,0,T3,t,b,False,1151,3,15281,testPhase
38,0,T0,t,a,False,1618,3,15281,testPhase
39,0,T1,t,a,False,1138,3,15281,testPhase
40,0,T7,t,a,False,1607,3,15281,testPhase
41,0,T9,t,a,False,833,3,15281,testPhase
42,0,B7,b,b,True,1336,3,15281,testPhase
43,0,A5,a,a,True,861,3,15281,testPhase
44,0,A7,a,a,True,1118,3,15281,testPhase
45,0,A8,a,a,True,1177,3,15281,testPhase
46,0,T3,t,b,False,2665,3,15281,testPhase
47,0,T7,t,a,False,1118,3,15281,testPhase
48,0,T2,t,a,False,1160,3,15281,testPhase
49,0,T2,t,a,False,735,3,15281,testPhase
50,0,T5,t,a,False,680,3,15281,testPhase
51,0,T7,t,a,False,797,3,15281,testPhase
52,0,T6,t,a,False,677,3,15281,testPhase
53,0,T5,t,a,False,669,3,15281,testPhase
54,0,T0,t,a,False,903,3,15281,testPhase
55,0,T6,t,a,False,803,3,15281,testPhase
56,0,T4,t,a,False,888,3,15281,testPhase
57,0,T1,t,a,False,1936,3,15281,testPhase
58,0,T0,t,a,False,1575,3,15281,testPhase
59,0,A2,a,a,True,815,3,15281,testPhase
60,0,T2,t,a,False,870,3,15281,testPhase
61,0,T6,t,a,False,897,3,15281,testPhase
62,0,B5,b,b,True,2847,3,15281,testPhase
63,0,B2,b,a,False,1178,3,15281,testPhase
64,0,T11,t,a,False,842,3,15281,testPhase
65,0,T7,t,a,False,755,3,15281,testPhase
66,0,A0,a,a,True,878,3,15281,testPhase
67,0,B6,b,b,True,1168,3,15281,testPhase
0,0,A0,a,a,True,1952,3,15286,testPhase
1,0,T2,t,a,False,917,3,15286,testPhase
2,0,A3,a,a,True,1602,3,15286,testPhase
3,0,B5,b,b,True,1090,3,15286,testPhase
4,0,T6,t,b,False,1230,3,15286,testPhase
5,0,T2,t,a,False,925,3,15286,testPhase
6,0,A10,a,a,True,2399,3,15286,testPhase
7,0,A7,a,a,True,735,3,15286,testPhase
8,0,B0,b,b,True,1414,3,15286,testPhase
9,0,T2,t,a,False,749,3,15286,testPhase
10,0,T0,t,a,False,752,3,15286,testPhase
11,0,B1,b,b,True,782,3,15286,testPhase
12,0,T5,t,b,False,677,3,15286,testPhase
13,0,T5,t,b,False,510,3,15286,testPhase
14,0,T7,t,b,False,566,3,15286,testPhase
15,0,T4,t,b,False,348,3,15286,testPhase
16,0,T7,t,b,False,422,3,15286,testPhase
17,0,T4,t,b,False,358,3,15286,testPhase
18,0,T11,t,b,False,334,3,15286,testPhase
19,0,T7,t,b,False,342,3,15286,testPhase
20,0,T0,t,a,False,919,3,15286,testPhase
21,0,A1,a,a,True,958,3,15286,testPhase
22,0,B9,b,b,True,1061,3,15286,testPhase
23,0,T2,t,a,False,782,3,15286,testPhase
24,0,T3,t,a,False,838,3,15286,testPhase
25,0,T5,t,b,False,1044,3,15286,testPhase
26,0,T4,t,b,False,679,3,15286,testPhase
27,0,T1,t,a,False,893,3,15286,testPhase
28,0,B11,b,b,True,1046,3,15286,testPhase
29,0,T7,t,b,False,453,3,15286,testPhase
30,0,B7,b,b,True,1462,3,15286,testPhase
31,0,T9,t,b,False,470,3,15286,testPhase
32,0,A8,a,a,True,1046,3,15286,testPhase
33,0,A11,a,b,False,1821,3,15286,testPhase
34,0,T7,t,b,False,2186,3,15286,testPhase
35,0,T10,t,b,False,909,3,15286,testPhase
36,0,B6,b,a,False,919,3,15286,testPhase
37,0,B10,b,b,True,2592,3,15286,testPhase
38,0,T6,t,b,False,429,3,15286,testPhase
39,0,T4,t,b,False,438,3,15286,testPhase
40,0,A4,a,b,False,1797,3,15286,testPhase
41,0,T0,t,a,False,893,3,15286,testPhase
42,0,A9,a,a,True,636,3,15286,testPhase
43,0,T3,t,a,False,575,3,15286,testPhase
44,0,T3,t,a,False,359,3,15286,testPhase
45,0,B8,b,a,False,358,3,15286,testPhase
46,0,A6,a,b,False,439,3,15286,testPhase
47,0,T1,t,a,False,614,3,15286,testPhase
48,0,B4,b,a,False,420,3,15286,testPhase
49,0,T4,t,b,False,1321,3,15286,testPhase
50,0,T0,t,a,False,791,3,15286,testPhase
51,0,A2,a,b,False,951,3,15286,testPhase
52,0,B3,b,b,True,1031,3,15286,testPhase
53,0,T3,t,a,False,797,3,15286,testPhase
54,0,T6,t,b,False,1490,3,15286,testPhase
55,0,T6,t,b,False,786,3,15286,testPhase
56,0,T1,t,a,False,1095,3,15286,testPhase
57,0,T0,t,a,False,1237,3,15286,testPhase
58,0,T5,t,b,False,726,3,15286,testPhase
59,0,T2,t,a,False,1479,3,15286,testPhase
60,0,T8,t,b,False,1286,3,15286,testPhase
61,0,T1,t,a,False,1110,3,15286,testPhase
62,0,T5,t,b,False,737,3,15286,testPhase
63,0,T6,t,b,False,516,3,15286,testPhase
64,0,B2,b,b,True,527,3,15286,testPhase
65,0,A5,a,b,False,797,3,15286,testPhase
66,0,T1,t,a,False,925,3,15286,testPhase
67,0,T3,t,a,False,969,3,15286,testPhase
0,0,B6,b,b,True,5518,3,15291,testPhase
1,0,T2,t,a,False,926,3,15291,testPhase
2,0,T2,t,a,False,803,3,15291,testPhase
3,0,T5,t,b,False,1259,3,15291,testPhase
4,0,A10,a,b,False,1469,3,15291,testPhase
5,0,T1,t,a,False,741,3,15291,testPhase
6,0,A8,a,a,True,2366,3,15291,testPhase
7,0,T1,t,a,False,934,3,15291,testPhase
8,0,B4,b,b,True,998,3,15291,testPhase
9,0,A3,a,a,True,1335,3,15291,testPhase
10,0,A2,a,a,True,1693,3,15291,testPhase
11,0,T2,t,a,False,1035,3,15291,testPhase
12,0,A9,a,a,True,687,3,15291,testPhase
13,0,A11,a,a,True,702,3,15291,testPhase
14,0,T7,t,b,False,1077,3,15291,testPhase
15,0,B10,b,b,True,830,3,15291,testPhase
16,0,T4,t,b,False,726,3,15291,testPhase
17,0,T7,t,b,False,813,3,15291,testPhase
18,0,T5,t,b,False,934,3,15291,testPhase
19,0,T8,t,b,False,9215,3,15291,testPhase
20,0,T9,t,b,False,837,3,15291,testPhase
21,0,T3,t,a,False,781,3,15291,testPhase
22,0,T7,t,b,False,630,3,15291,testPhase
23,0,B2,b,b,True,5169,3,15291,testPhase
24,0,A6,a,a,True,1309,3,15291,testPhase
25,0,T5,t,b,False,880,3,15291,testPhase
26,0,T3,t,a,False,631,3,15291,testPhase
27,0,B11,b,b,True,703,3,15291,testPhase
28,0,B1,b,b,True,2510,3,15291,testPhase
29,0,T1,t,a,False,1082,3,15291,testPhase
30,0,B0,b,a,False,1463,3,15291,testPhase
31,0,B9,b,b,True,1341,3,15291,testPhase
32,0,T7,t,b,False,1222,3,15291,testPhase
33,0,T7,t,b,False,1106,3,15291,testPhase
34,0,T2,t,a,False,781,3,15291,testPhase
35,0,T4,t,b,False,1182,3,15291,testPhase
36,0,T6,t,b,False,670,3,15291,testPhase
37,0,T1,t,a,False,738,3,15291,testPhase
38,0,T5,t,b,False,1950,3,15291,testPhase
39,0,T0,t,a,False,634,3,15291,testPhase
40,0,T3,t,a,False,670,3,15291,testPhase
41,0,A7,a,a,True,718,3,15291,testPhase
42,0,B5,b,b,True,567,3,15291,testPhase
43,0,T2,t,a,False,910,3,15291,testPhase
44,0,T5,t,b,False,546,3,15291,testPhase
45,0,B8,b,b,True,1213,3,15291,testPhase
46,0,A0,a,a,True,694,3,15291,testPhase
47,0,T4,t,b,False,669,3,15291,testPhase
48,0,T10,t,a,False,988,3,15291,testPhase
49,0,A1,a,a,True,1542,3,15291,testPhase
50,0,T3,t,a,False,1065,3,15291,testPhase
51,0,T3,t,a,False,691,3,15291,testPhase
52,0,A5,a,a,True,5530,3,15291,testPhase
53,0,T6,t,b,False,843,3,15291,testPhase
54,0,T6,t,b,False,1909,3,15291,testPhase
55,0,T0,t,a,False,1465,3,15291,testPhase
56,0,B7,b,a,False,1255,3,15291,testPhase
57,0,T6,t,b,False,1677,3,15291,testPhase
58,0,T6,t,b,False,1850,3,15291,testPhase
59,0,T0,t,a,False,717,3,15291,testPhase
60,0,T4,t,b,False,942,3,15291,testPhase
61,0,B3,b,b,True,1494,3,15291,testPhase
62,0,T11,t,a,False,709,3,15291,testPhase
63,0,T0,t,b,False,7268,3,15291,testPhase
64,0,T4,t,b,False,2335,3,15291,testPhase
65,0,T0,t,a,False,803,3,15291,testPhase
66,0,A4,a,b,False,4415,3,15291,testPhase
67,0,T1,t,a,False,1006,3,15291,testPhase
0,0,T2,t,a,False,1214,3,15296,testPhase
1,0,T5,t,b,False,1391,3,15296,testPhase
2,0,T7,t,b,False,932,3,15296,testPhase
3,0,T7,t,b,False,1013,3,15296,testPhase
4,0,B0,b,a,False,2286,3,15296,testPhase
5,0,T3,t,a,False,1089,3,15296,testPhase
6,0,A6,a,a,True,1101,3,15296,testPhase
7,0,T11,t,a,False,1637,3,15296,testPhase
8,0,T5,t,b,False,1239,3,15296,testPhase
9,0,A0,a,a,True,1182,3,15296,testPhase
10,0,B9,b,b,True,1528,3,15296,testPhase
11,0,T9,t,b,False,1688,3,15296,testPhase
12,0,T6,t,b,False,1357,3,15296,testPhase
13,0,T2,t,a,False,949,3,15296,testPhase
14,0,T6,t,b,False,1497,3,15296,testPhase
15,0,T3,t,a,False,1437,3,15296,testPhase
16,0,T3,t,a,False,1021,3,15296,testPhase
17,0,T1,t,a,False,694,3,15296,testPhase
18,0,T2,t,a,False,590,3,15296,testPhase
19,0,A4,a,b,False,1838,3,15296,testPhase
20,0,B10,b,b,True,1236,3,15296,testPhase
21,0,T6,t,b,False,910,3,15296,testPhase
22,0,T5,t,b,False,673,3,15296,testPhase
23,0,T5,t,b,False,468,3,15296,testPhase
24,0,A2,a,a,True,1106,3,15296,testPhase
25,0,T1,t,a,False,886,3,15296,testPhase
26,0,T4,t,b,False,1279,3,15296,testPhase
27,0,T6,t,b,False,638,3,15296,testPhase
28,0,T2,t,a,False,1035,3,15296,testPhase
29,0,B7,b,a,False,2846,3,15296,testPhase
30,0,A1,a,a,True,1437,3,15296,testPhase
31,0,T3,t,a,False,1146,3,15296,testPhase
32,0,A5,a,b,False,2394,3,15296,testPhase
33,0,T0,t,a,False,1094,3,15296,testPhase
34,0,T1,t,a,False,783,3,15296,testPhase
35,0,T2,t,a,False,1029,3,15296,testPhase
36,0,T5,t,b,False,1501,3,15296,testPhase
37,0,A3,a,a,True,1142,3,15296,testPhase
38,0,B4,b,b,True,866,3,15296,testPhase
39,0,T0,t,a,False,837,3,15296,testPhase
40,0,T7,t,b,False,974,3,15296,testPhase
41,0,A8,a,a,True,847,3,15296,testPhase
42,0,T4,t,b,False,863,3,15296,testPhase
43,0,B8,b,b,True,1751,3,15296,testPhase
44,0,B2,b,b,True,838,3,15296,testPhase
45,0,T4,t,b,False,789,3,15296,testPhase
46,0,T0,t,a,False,1261,3,15296,testPhase
47,0,B11,b,b,True,879,3,15296,testPhase
48,0,T10,t,b,False,1669,3,15296,testPhase
49,0,B5,b,b,True,2015,3,15296,testPhase
50,0,T7,t,b,False,1087,3,15296,testPhase
51,0,T3,t,a,False,937,3,15296,testPhase
52,0,B1,b,a,False,1375,3,15296,testPhase
53,0,T4,t,b,False,1000,3,15296,testPhase
54,0,T4,t,b,False,824,3,15296,testPhase
55,0,T6,t,b,False,751,3,15296,testPhase
56,0,B3,b,b,True,630,3,15296,testPhase
57,0,T7,t,b,False,615,3,15296,testPhase
58,0,B6,b,a,False,1108,3,15296,testPhase
59,0,T1,t,a,False,2237,3,15296,testPhase
60,0,A10,a,a,True,2077,3,15296,testPhase
61,0,A9,a,a,True,1877,3,15296,testPhase
62,0,T0,t,a,False,1216,3,15296,testPhase
63,0,A11,a,b,False,1068,3,15296,testPhase
64,0,T1,t,b,False,640,3,15296,testPhase
65,0,A7,a,a,True,1319,3,15296,testPhase
66,0,T0,t,a,False,884,3,15296,testPhase
67,0,T8,t,b,False,1038,3,15296,testPhase
0,0,T2,t,b,False,2539,3,15301,testPhase
1,0,T7,t,a,False,1041,3,15301,testPhase
2,0,T9,t,b,False,1662,3,15301,testPhase
3,0,T5,t,a,False,1057,3,15301,testPhase
4,0,T5,t,a,False,748,3,15301,testPhase
5,0,T3,t,b,False,871,3,15301,testPhase
6,0,T1,t,b,False,871,3,15301,testPhase
7,0,B4,b,b,True,2551,3,15301,testPhase
8,0,T7,t,a,False,1026,3,15301,testPhase
9,0,A5,a,a,True,720,3,15301,testPhase
10,0,T0,t,b,False,1118,3,15301,testPhase
11,0,T2,t,b,False,712,3,15301,testPhase
12,0,A4,a,a,True,798,3,15301,testPhase
13,0,T4,t,b,False,1277,3,15301,testPhase
14,0,A1,a,a,True,884,3,15301,testPhase
15,0,T4,t,b,False,872,3,15301,testPhase
16,0,T0,t,b,False,1315,3,15301,testPhase
17,0,A10,a,b,False,964,3,15301,testPhase
18,0,T3,t,b,False,798,3,15301,testPhase
19,0,B2,b,b,True,1107,3,15301,testPhase
20,0,T2,t,b,False,780,3,15301,testPhase
21,0,B7,b,b,True,518,3,15301,testPhase
22,0,A9,a,a,True,1022,3,15301,testPhase
23,0,A6,a,a,True,1078,3,15301,testPhase
24,0,T4,t,b,False,1670,3,15301,testPhase
25,0,T7,t,b,False,398,3,15301,testPhase
26,0,T2,t,b,False,821,3,15301,testPhase
27,0,B6,b,b,True,582,3,15301,testPhase
28,0,T0,t,b,False,1686,3,15301,testPhase
29,0,B1,b,b,True,924,3,15301,testPhase
30,0,T6,t,a,False,1162,3,15301,testPhase
31,0,T3,t,b,False,798,3,15301,testPhase
32,0,B9,b,b,True,718,3,15301,testPhase
33,0,T10,t,a,False,1310,3,15301,testPhase
34,0,B3,b,a,False,1654,3,15301,testPhase
35,0,A0,a,a,True,854,3,15301,testPhase
36,0,T3,t,b,False,735,3,15301,testPhase
37,0,T0,t,b,False,798,3,15301,testPhase
38,0,T4,t,a,False,1436,3,15301,testPhase
39,0,B8,b,b,True,767,3,15301,testPhase
40,0,T5,t,a,False,773,3,15301,testPhase
41,0,T6,t,a,False,1164,3,15301,testPhase
42,0,B10,b,b,True,869,3,15301,testPhase
43,0,T6,t,a,False,847,3,15301,testPhase
44,0,T1,t,b,False,709,3,15301,testPhase
45,0,T7,t,a,False,781,3,15301,testPhase
46,0,A7,a,b,False,932,3,15301,testPhase
47,0,T3,t,b,False,774,3,15301,testPhase
48,0,T1,t,b,False,645,3,15301,testPhase
49,0,T0,t,b,False,610,3,15301,testPhase
50,0,T8,t,a,False,742,3,15301,testPhase
51,0,A2,a,a,True,2006,3,15301,testPhase
52,0,T6,t,a,False,940,3,15301,testPhase
53,0,T2,t,b,False,893,3,15301,testPhase
54,0,T1,t,b,False,660,3,15301,testPhase
55,0,A11,a,a,True,1331,3,15301,testPhase
56,0,B11,b,b,True,698,3,15301,testPhase
57,0,T11,t,b,False,686,3,15301,testPhase
58,0,B5,b,b,True,656,3,15301,testPhase
59,0,T4,t,a,False,799,3,15301,testPhase
60,0,A8,a,b,False,582,3,15301,testPhase
61,0,T7,t,a,False,759,3,15301,testPhase
62,0,T5,t,a,False,686,3,15301,testPhase
63,0,T1,t,b,False,846,3,15301,testPhase
64,0,T5,t,a,False,890,3,15301,testPhase
65,0,B0,b,b,True,646,3,15301,testPhase
66,0,T6,t,a,False,882,3,15301,testPhase
67,0,A3,a,a,True,983,3,15301,testPhase
0,0,T2,t,a,False,1682,3,15306,testPhase
1,0,B5,b,b,True,846,3,15306,testPhase
2,0,B10,b,b,True,2382,3,15306,testPhase
3,0,A11,a,a,True,1998,3,15306,testPhase
4,0,T1,t,a,False,926,3,15306,testPhase
5,0,T1,t,a,False,654,3,15306,testPhase
6,0,T3,t,a,False,606,3,15306,testPhase
7,0,T6,t,b,False,934,3,15306,testPhase
8,0,T7,t,b,False,614,3,15306,testPhase
9,0,A7,a,a,True,846,3,15306,testPhase
10,0,T2,t,a,False,795,3,15306,testPhase
11,0,T3,t,a,False,736,3,15306,testPhase
12,0,B11,b,b,True,836,3,15306,testPhase
13,0,T3,t,a,False,695,3,15306,testPhase
14,0,T0,t,a,False,1308,3,15306,testPhase
15,0,T5,t,b,False,838,3,15306,testPhase
16,0,T6,t,b,False,2124,3,15306,testPhase
17,0,T1,t,a,False,740,3,15306,testPhase
18,0,A2,a,a,True,975,3,15306,testPhase
19,0,T11,t,a,False,737,3,15306,testPhase
20,0,B1,b,b,True,1258,3,15306,testPhase
21,0,T10,t,a,False,1797,3,15306,testPhase
22,0,T7,t,b,False,807,3,15306,testPhase
23,0,T4,t,b,False,718,3,15306,testPhase
24,0,T8,t,b,False,1640,3,15306,testPhase
25,0,A3,a,a,True,845,3,15306,testPhase
26,0,T4,t,b,False,781,3,15306,testPhase
27,0,B8,b,b,True,1471,3,15306,testPhase
28,0,T0,t,a,False,1001,3,15306,testPhase
29,0,T0,t,a,False,1075,3,15306,testPhase
30,0,T5,t,b,False,748,3,15306,testPhase
31,0,A4,a,a,True,1041,3,15306,testPhase
32,0,T2,t,a,False,987,3,15306,testPhase
33,0,B2,b,a,False,1551,3,15306,testPhase
34,0,T7,t,b,False,830,3,15306,testPhase
35,0,A1,a,a,True,907,3,15306,testPhase
36,0,T5,t,b,False,812,3,15306,testPhase
37,0,T7,t,b,False,1559,3,15306,testPhase
38,0,T6,t,b,False,821,3,15306,testPhase
39,0,T4,t,b,False,673,3,15306,testPhase
40,0,T5,t,b,False,607,3,15306,testPhase
41,0,T6,t,b,False,592,3,15306,testPhase
42,0,A10,a,a,True,950,3,15306,testPhase
43,0,A5,a,a,True,676,3,15306,testPhase
44,0,T0,t,a,False,624,3,15306,testPhase
45,0,B0,b,a,False,1957,3,15306,testPhase
46,0,B7,b,a,False,716,3,15306,testPhase
47,0,A6,a,a,True,678,3,15306,testPhase
48,0,T4,t,b,False,1015,3,15306,testPhase
49,0,A8,a,a,True,992,3,15306,testPhase
50,0,B9,b,b,True,3189,3,15306,testPhase
51,0,T5,t,b,False,1656,3,15306,testPhase
52,0,T2,t,a,False,1019,3,15306,testPhase
53,0,T3,t,a,False,663,3,15306,testPhase
54,0,T1,t,a,False,469,3,15306,testPhase
55,0,B3,b,b,True,774,3,15306,testPhase
56,0,A0,a,a,True,725,3,15306,testPhase
57,0,T6,t,b,False,1566,3,15306,testPhase
58,0,T0,t,a,False,867,3,15306,testPhase
59,0,A9,a,a,True,1022,3,15306,testPhase
60,0,B6,b,a,False,775,3,15306,testPhase
61,0,T1,t,a,False,782,3,15306,testPhase
62,0,T9,t,a,False,991,3,15306,testPhase
63,0,T4,t,b,False,813,3,15306,testPhase
64,0,T2,t,a,False,829,3,15306,testPhase
65,0,T7,t,b,False,917,3,15306,testPhase
66,0,T3,t,a,False,676,3,15306,testPhase
67,0,B4,b,b,True,1460,3,15306,testPhase
0,0,B7,b,b,True,1805,3,14919,testPhase
1,0,T7,t,b,False,1344,3,14919,testPhase
2,0,A6,a,a,True,909,3,14919,testPhase
3,0,T1,t,a,False,1166,3,14919,testPhase
4,0,A3,a,a,True,858,3,14919,testPhase
5,0,T3,t,a,False,1159,3,14919,testPhase
6,0,A8,a,a,True,988,3,14919,testPhase
7,0,T7,t,b,False,815,3,14919,testPhase
8,0,T7,t,b,False,696,3,14919,testPhase
9,0,T3,t,a,False,752,3,14919,testPhase
10,0,A0,a,a,True,787,3,14919,testPhase
11,0,T10,t,b,False,1715,3,14919,testPhase
12,0,T3,t,a,False,696,3,14919,testPhase
13,0,T5,t,b,False,1061,3,14919,testPhase
14,0,T3,t,a,False,827,3,14919,testPhase
15,0,A5,a,b,False,2131,3,14919,testPhase
16,0,B2,b,b,True,899,3,14919,testPhase
17,0,A10,a,a,True,978,3,14919,testPhase
18,0,T2,t,a,False,885,3,14919,testPhase
19,0,B1,b,a,False,1215,3,14919,testPhase
20,0,A4,a,a,True,1125,3,14919,testPhase
21,0,T2,t,a,False,908,3,14919,testPhase
22,0,T7,t,b,False,759,3,14919,testPhase
23,0,A9,a,a,True,867,3,14919,testPhase
24,0,T4,t,b,False,1491,3,14919,testPhase
25,0,T5,t,b,False,852,3,14919,testPhase
26,0,T2,t,a,False,869,3,14919,testPhase
27,0,T2,t,a,False,798,3,14919,testPhase
28,0,T4,t,b,False,965,3,14919,testPhase
29,0,T6,t,b,False,1294,3,14919,testPhase
30,0,T0,t,a,False,1106,3,14919,testPhase
31,0,T0,t,a,False,657,3,14919,testPhase
32,0,A1,a,a,True,1779,3,14919,testPhase
33,0,T5,t,b,False,1085,3,14919,testPhase
34,0,T0,t,a,False,692,3,14919,testPhase
35,0,T11,t,a,False,1552,3,14919,testPhase
36,0,T6,t,b,False,1181,3,14919,testPhase
37,0,B8,b,b,True,1433,3,14919,testPhase
38,0,T4,t,b,False,1092,3,14919,testPhase
39,0,T6,t,b,False,1201,3,14919,testPhase
40,0,T6,t,b,False,677,3,14919,testPhase
41,0,T1,t,a,False,846,3,14919,testPhase
42,0,B4,b,b,True,1120,3,14919,testPhase
43,0,B6,b,a,False,2933,3,14919,testPhase
44,0,B10,b,b,True,879,3,14919,testPhase
45,0,B0,b,a,False,1106,3,14919,testPhase
46,0,T6,t,b,False,869,3,14919,testPhase
47,0,T1,t,a,False,1278,3,14919,testPhase
48,0,T2,t,a,False,1011,3,14919,testPhase
49,0,B9,b,b,True,1012,3,14919,testPhase
50,0,T8,t,b,False,1062,3,14919,testPhase
51,0,A2,a,a,True,805,3,14919,testPhase
52,0,A7,a,a,True,956,3,14919,testPhase
53,0,B3,b,b,True,1541,3,14919,testPhase
54,0,T1,t,a,False,949,3,14919,testPhase
55,0,T0,t,a,False,739,3,14919,testPhase
56,0,B11,b,b,True,982,3,14919,testPhase
57,0,T1,t,a,False,657,3,14919,testPhase
58,0,T4,t,b,False,1072,3,14919,testPhase
59,0,T5,t,b,False,1025,3,14919,testPhase
60,0,T9,t,b,False,1062,3,14919,testPhase
61,0,T7,t,b,False,740,3,14919,testPhase
62,0,T3,t,a,False,966,3,14919,testPhase
63,0,A11,a,b,False,3702,3,14919,testPhase
64,0,T5,t,b,False,1302,3,14919,testPhase
65,0,T4,t,b,False,860,3,14919,testPhase
66,0,T0,t,a,False,926,3,14919,testPhase
67,0,B5,b,b,True,984,3,14919,testPhase
0,0,T7,t,b,False,2342,3,14924,testPhase
1,0,T9,t,a,False,3023,3,14924,testPhase
2,0,B5,b,b,True,1313,3,14924,testPhase
3,0,T3,t,a,False,942,3,14924,testPhase
4,0,B10,b,a,False,1493,3,14924,testPhase
5,0,T4,t,b,False,1374,3,14924,testPhase
6,0,A7,a,a,True,1027,3,14924,testPhase
7,0,B9,b,b,True,1045,3,14924,testPhase
8,0,B7,b,b,True,1027,3,14924,testPhase
9,0,A6,a,b,False,2216,3,14924,testPhase
10,0,T7,t,b,False,964,3,14924,testPhase
11,0,A10,a,a,True,1429,3,14924,testPhase
12,0,T0,t,a,False,1101,3,14924,testPhase
13,0,T3,t,a,False,879,3,14924,testPhase
14,0,T2,t,a,False,809,3,14924,testPhase
15,0,T0,t,a,False,663,3,14924,testPhase
16,0,A2,a,a,True,532,3,14924,testPhase
17,0,T6,t,b,False,1193,3,14924,testPhase
18,0,T5,t,b,False,1722,3,14924,testPhase
19,0,B1,b,b,True,693,3,14924,testPhase
20,0,T0,t,a,False,1529,3,14924,testPhase
21,0,T6,t,b,False,863,3,14924,testPhase
22,0,T5,t,b,False,754,3,14924,testPhase
23,0,B11,b,b,True,780,3,14924,testPhase
24,0,T3,t,a,False,888,3,14924,testPhase
25,0,T1,t,a,False,839,3,14924,testPhase
26,0,T4,t,b,False,885,3,14924,testPhase
27,0,B2,b,b,True,1051,3,14924,testPhase
28,0,T4,t,b,False,1158,3,14924,testPhase
29,0,T1,t,a,False,844,3,14924,testPhase
30,0,A4,a,b,False,1078,3,14924,testPhase
31,0,T7,t,b,False,1260,3,14924,testPhase
32,0,T10,t,b,False,1055,3,14924,testPhase
33,0,T6,t,b,False,1017,3,14924,testPhase
34,0,T11,t,b,False,958,3,14924,testPhase
35,0,T2,t,a,False,983,3,14924,testPhase
36,0,A8,a,a,True,821,3,14924,testPhase
37,0,A11,a,b,False,1604,3,14924,testPhase
38,0,A0,a,a,True,906,3,14924,testPhase
39,0,B8,b,b,True,1028,3,14924,testPhase
40,0,T4,t,b,False,1028,3,14924,testPhase
41,0,T1,t,a,False,927,3,14924,testPhase
42,0,T3,t,a,False,753,3,14924,testPhase
43,0,A3,a,b,False,1025,3,14924,testPhase
44,0,B3,b,b,True,1127,3,14924,testPhase
45,0,A1,a,a,True,978,3,14924,testPhase
46,0,T5,t,b,False,1261,3,14924,testPhase
47,0,T2,t,a,False,973,3,14924,testPhase
48,0,A5,a,b,False,1073,3,14924,testPhase
49,0,T2,t,a,False,783,3,14924,testPhase
50,0,T1,t,a,False,740,3,14924,testPhase
51,0,A9,a,a,True,1455,3,14924,testPhase
52,0,B0,b,a,False,915,3,14924,testPhase
53,0,T0,t,a,False,850,3,14924,testPhase
54,0,T6,t,b,False,919,3,14924,testPhase
55,0,T1,t,a,False,918,3,14924,testPhase
56,0,T5,t,b,False,1178,3,14924,testPhase
57,0,T5,t,b,False,979,3,14924,testPhase
58,0,T7,t,b,False,630,3,14924,testPhase
59,0,B4,b,b,True,906,3,14924,testPhase
60,0,T3,t,a,False,1409,3,14924,testPhase
61,0,B6,b,b,True,1038,3,14924,testPhase
62,0,T4,t,b,False,1085,3,14924,testPhase
63,0,T0,t,a,False,1158,3,14924,testPhase
64,0,T2,t,a,False,884,3,14924,testPhase
65,0,T6,t,b,False,2410,3,14924,testPhase
66,0,T7,t,b,False,918,3,14924,testPhase
67,0,T8,t,b,False,1088,3,14924,testPhase
0,0,B5,b,b,True,4457,3,14929,testPhase
1,0,T4,t,b,False,2017,3,14929,testPhase
2,0,T3,t,a,False,2808,3,14929,testPhase
3,0,T1,t,a,False,1044,3,14929,testPhase
4,0,T5,t,b,False,1043,3,14929,testPhase
5,0,T0,t,a,False,949,3,14929,testPhase
6,0,T6,t,b,False,746,3,14929,testPhase
7,0,T8,t,b,False,2164,3,14929,testPhase
8,0,T0,t,a,False,988,3,14929,testPhase
9,0,T6,t,b,False,869,3,14929,testPhase
10,0,A6,a,a,True,776,3,14929,testPhase
11,0,A0,a,a,True,1924,3,14929,testPhase
12,0,T6,t,b,False,1301,3,14929,testPhase
13,0,T2,t,a,False,966,3,14929,testPhase
14,0,B0,b,b,True,1880,3,14929,testPhase
15,0,T7,t,b,False,966,3,14929,testPhase
16,0,T3,t,a,False,1241,3,14929,testPhase
17,0,T10,t,b,False,685,3,14929,testPhase
18,0,T0,t,b,False,888,3,14929,testPhase
19,0,T7,t,a,False,677,3,14929,testPhase
20,0,T5,t,b,False,1157,3,14929,testPhase
21,0,T1,t,a,False,1008,3,14929,testPhase
22,0,T5,t,b,False,1361,3,14929,testPhase
23,0,A1,a,a,True,1266,3,14929,testPhase
24,0,T2,t,a,False,827,3,14929,testPhase
25,0,T3,t,a,False,762,3,14929,testPhase
26,0,T3,t,a,False,1173,3,14929,testPhase
27,0,T1,t,a,False,733,3,14929,testPhase
28,0,A7,a,b,False,1024,3,14929,testPhase
29,0,B8,b,b,True,2753,3,14929,testPhase
30,0,T7,t,b,False,976,3,14929,testPhase
31,0,T9,t,b,False,856,3,14929,testPhase
32,0,A9,a,b,False,1267,3,14929,testPhase
33,0,A11,a,b,False,733,3,14929,testPhase
34,0,B6,b,b,True,926,3,14929,testPhase
35,0,A2,a,a,True,1102,3,14929,testPhase
36,0,B7,b,b,True,733,3,14929,testPhase
37,0,T4,t,b,False,1254,3,14929,testPhase
38,0,T2,t,a,False,1039,3,14929,testPhase
39,0,B2,b,b,True,1279,3,14929,testPhase
40,0,T7,t,b,False,693,3,14929,testPhase
41,0,A5,a,b,False,665,3,14929,testPhase
42,0,T2,t,a,False,710,3,14929,testPhase
43,0,A8,a,a,True,1243,3,14929,testPhase
44,0,T4,t,b,False,1173,3,14929,testPhase
45,0,T1,t,a,False,3190,3,14929,testPhase
46,0,T4,t,b,False,886,3,14929,testPhase
47,0,T6,t,b,False,694,3,14929,testPhase
48,0,T6,t,b,False,599,3,14929,testPhase
49,0,T0,t,a,False,935,3,14929,testPhase
50,0,T5,t,b,False,790,3,14929,testPhase
51,0,T11,t,a,False,469,3,14929,testPhase
52,0,A4,a,b,False,844,3,14929,testPhase
53,0,T5,t,b,False,3350,3,14929,testPhase
54,0,A3,a,a,True,5794,3,14929,testPhase
55,0,T0,t,a,False,868,3,14929,testPhase
56,0,B1,b,b,True,811,3,14929,testPhase
57,0,B10,b,b,True,680,3,14929,testPhase
58,0,T2,t,a,False,942,3,14929,testPhase
59,0,T3,t,a,False,782,3,14929,testPhase
60,0,B3,b,b,True,847,3,14929,testPhase
61,0,T7,t,b,False,726,3,14929,testPhase
62,0,T4,t,b,False,1133,3,14929,testPhase
63,0,B9,b,b,True,1013,3,14929,testPhase
64,0,B4,b,b,True,689,3,14929,testPhase
65,0,B11,b,b,True,861,3,14929,testPhase
66,0,T1,t,a,False,804,3,14929,testPhase
67,0,A10,a,a,True,1102,3,14929,testPhase
0,0,T5,t,b,False,2302,3,14934,testPhase
1,0,T1,t,a,False,2746,3,14934,testPhase
2,0,A7,a,a,True,1115,3,14934,testPhase
3,0,T0,t,a,False,3326,3,14934,testPhase
4,0,T0,t,a,False,766,3,14934,testPhase
5,0,B5,b,b,True,1168,3,14934,testPhase
6,0,T7,t,b,False,694,3,14934,testPhase
7,0,T0,t,a,False,903,3,14934,testPhase
8,0,T3,t,a,False,1230,3,14934,testPhase
9,0,T5,t,b,False,1486,3,14934,testPhase
10,0,T5,t,b,False,1223,3,14934,testPhase
11,0,B1,b,a,False,2412,3,14934,testPhase
12,0,A9,a,a,True,1081,3,14934,testPhase
13,0,T7,t,b,False,1900,3,14934,testPhase
14,0,B3,b,b,True,1925,3,14934,testPhase
15,0,T5,t,b,False,1233,3,14934,testPhase
16,0,B7,b,b,True,10258,3,14934,testPhase
17,0,A1,a,a,True,1423,3,14934,testPhase
18,0,B6,b,b,True,2599,3,14934,testPhase
19,0,T2,t,a,False,2071,3,14934,testPhase
20,0,T6,t,b,False,3406,3,14934,testPhase
21,0,A11,a,b,False,5883,3,14934,testPhase
22,0,A8,a,a,True,4075,3,14934,testPhase
23,0,A6,a,a,True,5523,3,14934,testPhase
24,0,T8,t,b,False,990,3,14934,testPhase
25,0,T6,t,b,False,862,3,14934,testPhase
26,0,T2,t,a,False,1170,3,14934,testPhase
27,0,T1,t,a,False,5656,3,14934,testPhase
28,0,B11,b,b,True,12614,3,14934,testPhase
29,0,T2,t,a,False,1078,3,14934,testPhase
30,0,A2,a,a,True,7143,3,14934,testPhase
31,0,T9,t,b,False,13260,3,14934,testPhase
32,0,T3,t,a,False,1362,3,14934,testPhase
33,0,T6,t,b,False,2126,3,14934,testPhase
34,0,T10,t,a,False,13240,3,14934,testPhase
35,0,T1,t,a,False,985,3,14934,testPhase
36,0,A5,a,a,True,6237,3,14934,testPhase
37,0,A10,a,a,True,1094,3,14934,testPhase
38,0,B0,b,a,False,15111,3,14934,testPhase
39,0,T4,t,b,False,2114,3,14934,testPhase
40,0,T3,t,a,False,1135,3,14934,testPhase
41,0,T5,t,b,False,1190,3,14934,testPhase
42,0,T1,t,a,False,1308,3,14934,testPhase
43,0,B10,b,b,True,1287,3,14934,testPhase
44,0,T4,t,b,False,663,3,14934,testPhase
45,0,B8,b,b,True,978,3,14934,testPhase
46,0,T2,t,a,False,1025,3,14934,testPhase
47,0,T4,t,b,False,958,3,14934,testPhase
48,0,T0,t,a,False,1046,3,14934,testPhase
49,0,B2,b,a,False,3710,3,14934,testPhase
50,0,T7,t,a,False,1654,3,14934,testPhase
51,0,T11,t,a,False,2239,3,14934,testPhase
52,0,T6,t,b,False,1133,3,14934,testPhase
53,0,T6,t,b,False,742,3,14934,testPhase
54,0,T2,t,a,False,944,3,14934,testPhase
55,0,A0,a,a,True,557,3,14934,testPhase
56,0,T7,t,a,False,2935,3,14934,testPhase
57,0,T0,t,a,False,875,3,14934,testPhase
58,0,A3,a,a,True,620,3,14934,testPhase
59,0,T4,t,a,False,924,3,14934,testPhase
60,0,T4,t,b,False,1550,3,14934,testPhase
61,0,B9,b,b,True,1691,3,14934,testPhase
62,0,T3,t,a,False,1051,3,14934,testPhase
63,0,T3,t,a,False,719,3,14934,testPhase
64,0,T1,t,a,False,1318,3,14934,testPhase
65,0,B4,b,b,True,3205,3,14934,testPhase
66,0,A4,a,a,True,1350,3,14934,testPhase
67,0,T7,t,b,False,1585,3,14934,testPhase
0,0,T5,t,b,False,1653,3,14939,testPhase
1,0,T10,t,b,False,1453,3,14939,testPhase
2,0,T4,t,b,False,2065,3,14939,testPhase
3,0,T6,t,b,False,1279,3,14939,testPhase
4,0,T2,t,a,False,896,3,14939,testPhase
5,0,B0,b,a,False,742,3,14939,testPhase
6,0,T1,t,a,False,805,3,14939,testPhase
7,0,T2,t,a,False,613,3,14939,testPhase
8,0,T2,t,a,False,543,3,14939,testPhase
9,0,T8,t,b,False,899,3,14939,testPhase
10,0,A4,a,b,False,614,3,14939,testPhase
11,0,T0,t,a,False,1411,3,14939,testPhase
12,0,B9,b,b,True,1019,3,14939,testPhase
13,0,T3,t,a,False,839,3,14939,testPhase
14,0,A6,a,a,True,736,3,14939,testPhase
15,0,T7,t,b,False,804,3,14939,testPhase
16,0,T7,t,b,False,656,3,14939,testPhase
17,0,T4,t,b,False,661,3,14939,testPhase
18,0,T2,t,a,False,771,3,14939,testPhase
19,0,T1,t,a,False,693,3,14939,testPhase
20,0,T11,t,b,False,1037,3,14939,testPhase
21,0,T9,t,b,False,848,3,14939,testPhase
22,0,T3,t,a,False,681,3,14939,testPhase
23,0,B4,b,b,True,886,3,14939,testPhase
24,0,T4,t,a,False,777,3,14939,testPhase
25,0,B6,b,a,False,1428,3,14939,testPhase
26,0,B2,b,a,False,1006,3,14939,testPhase
27,0,T6,t,b,False,1217,3,14939,testPhase
28,0,T0,t,a,False,767,3,14939,testPhase
29,0,T6,t,b,False,654,3,14939,testPhase
30,0,B5,b,b,True,664,3,14939,testPhase
31,0,T4,t,b,False,510,3,14939,testPhase
32,0,T0,t,a,False,670,3,14939,testPhase
33,0,T6,t,b,False,778,3,14939,testPhase
34,0,A2,a,a,True,1310,3,14939,testPhase
35,0,T3,t,a,False,690,3,14939,testPhase
36,0,T7,t,b,False,996,3,14939,testPhase
37,0,T5,t,b,False,738,3,14939,testPhase
38,0,A11,a,b,False,742,3,14939,testPhase
39,0,T1,t,a,False,706,3,14939,testPhase
40,0,A9,a,a,True,858,3,14939,testPhase
