trial,block,stimId,category,response,accuracy,rt,condition,id,phase
0,0,B2,b,a,False,2055,3,15036,trainPhase
1,0,A8,a,b,False,1660,3,15036,trainPhase
2,0,A11,a,b,False,3181,3,15036,trainPhase
3,0,A6,a,b,False,2181,3,15036,trainPhase
4,0,A9,a,a,True,1549,3,15036,trainPhase
5,0,B0,b,a,False,2347,3,15036,trainPhase
6,0,B10,b,a,False,1426,3,15036,trainPhase
7,0,B6,b,a,False,1294,3,15036,trainPhase
8,0,A10,a,b,False,1088,3,15036,trainPhase
9,0,B5,b,b,True,3989,3,15036,trainPhase
10,0,A0,a,a,True,2230,3,15036,trainPhase
11,0,B4,b,b,True,1318,3,15036,trainPhase
12,0,A4,a,a,True,3126,3,15036,trainPhase
13,0,A5,a,a,True,1038,3,15036,trainPhase
14,0,A3,a,a,True,1352,3,15036,trainPhase
15,0,B1,b,b,True,1126,3,15036,trainPhase
16,0,B9,b,b,True,1367,3,15036,trainPhase
17,0,B11,b,b,True,1294,3,15036,trainPhase
18,0,A2,a,a,True,1010,3,15036,trainPhase
19,0,B8,b,b,True,998,3,15036,trainPhase
20,0,B7,b,b,True,1102,3,15036,trainPhase
21,0,A1,a,a,True,2230,3,15036,trainPhase
22,0,B3,b,a,False,2191,3,15036,trainPhase
23,0,A7,a,b,False,1621,3,15036,trainPhase
0,1,B6,b,b,True,969,3,15036,trainPhase
1,1,A0,a,a,True,1133,3,15036,trainPhase
2,1,B2,b,a,False,1292,3,15036,trainPhase
3,1,B3,b,b,True,1174,3,15036,trainPhase
4,1,B10,b,b,True,1197,3,15036,trainPhase
5,1,A10,a,b,False,773,3,15036,trainPhase
6,1,A4,a,a,True,1350,3,15036,trainPhase
7,1,B11,b,b,True,1165,3,15036,trainPhase
8,1,B0,b,b,True,2861,3,15036,trainPhase
9,1,A7,a,b,False,1181,3,15036,trainPhase
10,1,A3,a,a,True,1114,3,15036,trainPhase
11,1,A2,a,a,True,832,3,15036,trainPhase
12,1,A11,a,a,True,2182,3,15036,trainPhase
13,1,B4,b,b,True,1038,3,15036,trainPhase
14,1,B8,b,b,True,2420,3,15036,trainPhase
15,1,B1,b,b,True,934,3,15036,trainPhase
16,1,A5,a,a,True,870,3,15036,trainPhase
17,1,A9,a,b,False,2774,3,15036,trainPhase
18,1,B9,b,b,True,1110,3,15036,trainPhase
19,1,A8,a,a,True,1870,3,15036,trainPhase
20,1,B5,b,b,True,1582,3,15036,trainPhase
21,1,A6,a,a,True,1347,3,15036,trainPhase
22,1,A1,a,a,True,1380,3,15036,trainPhase
23,1,B7,b,b,True,901,3,15036,trainPhase
0,2,B0,b,b,True,1522,3,15036,trainPhase
1,2,B4,b,b,True,989,3,15036,trainPhase
2,2,A2,a,a,True,1189,3,15036,trainPhase
3,2,A4,a,a,True,893,3,15036,trainPhase
4,2,B3,b,b,True,1030,3,15036,trainPhase
5,2,B2,b,b,True,1381,3,15036,trainPhase
6,2,A7,a,b,False,1052,3,15036,trainPhase
7,2,B7,b,b,True,1934,3,15036,trainPhase
8,2,B1,b,b,True,1405,3,15036,trainPhase
9,2,A5,a,a,True,1559,3,15036,trainPhase
10,2,A9,a,b,False,1142,3,15036,trainPhase
11,2,B11,b,b,True,3156,3,15036,trainPhase
12,2,B5,b,b,True,1192,3,15036,trainPhase
13,2,A11,a,a,True,1588,3,15036,trainPhase
14,2,B8,b,b,True,1174,3,15036,trainPhase
15,2,A6,a,a,True,1414,3,15036,trainPhase
16,2,B6,b,b,True,926,3,15036,trainPhase
17,2,A1,a,a,True,2052,3,15036,trainPhase
18,2,A3,a,a,True,1206,3,15036,trainPhase
19,2,B9,b,b,True,798,3,15036,trainPhase
20,2,A10,a,a,True,1094,3,15036,trainPhase
21,2,A8,a,a,True,1157,3,15036,trainPhase
22,2,A0,a,b,False,1254,3,15036,trainPhase
23,2,B10,b,b,True,2598,3,15036,trainPhase
0,3,B1,b,b,True,1205,3,15036,trainPhase
1,3,B2,b,b,True,916,3,15036,trainPhase
2,3,A1,a,a,True,1859,3,15036,trainPhase
3,3,A10,a,a,True,1317,3,15036,trainPhase
4,3,B8,b,b,True,812,3,15036,trainPhase
5,3,B11,b,b,True,725,3,15036,trainPhase
6,3,A11,a,a,True,821,3,15036,trainPhase
7,3,A4,a,a,True,1150,3,15036,trainPhase
8,3,A6,a,b,False,1565,3,15036,trainPhase
9,3,B7,b,b,True,2485,3,15036,trainPhase
10,3,A2,a,a,True,1142,3,15036,trainPhase
11,3,B5,b,b,True,1733,3,15036,trainPhase
12,3,A3,a,a,True,1469,3,15036,trainPhase
13,3,A5,a,a,True,958,3,15036,trainPhase
14,3,B3,b,b,True,1509,3,15036,trainPhase
15,3,B9,b,b,True,1125,3,15036,trainPhase
16,3,A0,a,a,True,934,3,15036,trainPhase
17,3,B0,b,b,True,2349,3,15036,trainPhase
18,3,A9,a,a,True,1614,3,15036,trainPhase
19,3,A7,a,a,True,765,3,15036,trainPhase
20,3,B10,b,b,True,1012,3,15036,trainPhase
21,3,B6,b,b,True,2685,3,15036,trainPhase
22,3,B4,b,b,True,2490,3,15036,trainPhase
23,3,A8,a,a,True,1260,3,15036,trainPhase
0,4,A7,a,a,True,1510,3,15036,trainPhase
0,0,B3,b,a,False,4351,3,15041,trainPhase
1,0,A2,a,a,True,1593,3,15041,trainPhase
2,0,B6,b,b,True,1277,3,15041,trainPhase
3,0,B10,b,b,True,1494,3,15041,trainPhase
4,0,B5,b,b,True,1325,3,15041,trainPhase
5,0,B1,b,a,False,1197,3,15041,trainPhase
6,0,A7,a,a,True,1909,3,15041,trainPhase
7,0,B7,b,b,True,870,3,15041,trainPhase
8,0,A9,a,b,False,1071,3,15041,trainPhase
9,0,A6,a,a,True,2580,3,15041,trainPhase
10,0,A11,a,b,False,972,3,15041,trainPhase
11,0,A8,a,a,True,973,3,15041,trainPhase
12,0,A0,a,a,True,1105,3,15041,trainPhase
13,0,A4,a,b,False,1592,3,15041,trainPhase
14,0,A3,a,a,True,1093,3,15041,trainPhase
15,0,A1,a,a,True,880,3,15041,trainPhase
16,0,A5,a,b,False,1061,3,15041,trainPhase
17,0,B11,b,b,True,1245,3,15041,trainPhase
18,0,B0,b,a,False,978,3,15041,trainPhase
19,0,B4,b,b,True,1167,3,15041,trainPhase
20,0,B2,b,b,True,1279,3,15041,trainPhase
21,0,B9,b,b,True,1010,3,15041,trainPhase
22,0,A10,a,a,True,1086,3,15041,trainPhase
23,0,B8,b,a,False,1583,3,15041,trainPhase
0,1,A5,a,b,False,1881,3,15041,trainPhase
1,1,B11,b,b,True,992,3,15041,trainPhase
2,1,B10,b,b,True,980,3,15041,trainPhase
3,1,A4,a,a,True,997,3,15041,trainPhase
4,1,B0,b,a,False,814,3,15041,trainPhase
5,1,B8,b,b,True,1828,3,15041,trainPhase
6,1,B7,b,b,True,837,3,15041,trainPhase
7,1,A7,a,a,True,1105,3,15041,trainPhase
8,1,A0,a,a,True,959,3,15041,trainPhase
9,1,A11,a,b,False,1451,3,15041,trainPhase
10,1,A10,a,a,True,1531,3,15041,trainPhase
11,1,A2,a,a,True,1080,3,15041,trainPhase
12,1,B1,b,b,True,1698,3,15041,trainPhase
13,1,B5,b,b,True,899,3,15041,trainPhase
14,1,A9,a,a,True,982,3,15041,trainPhase
15,1,B9,b,b,True,918,3,15041,trainPhase
16,1,B4,b,b,True,826,3,15041,trainPhase
17,1,B3,b,b,True,838,3,15041,trainPhase
18,1,A6,a,a,True,982,3,15041,trainPhase
19,1,A1,a,a,True,809,3,15041,trainPhase
20,1,A3,a,a,True,2152,3,15041,trainPhase
21,1,B6,b,b,True,1700,3,15041,trainPhase
22,1,A8,a,a,True,895,3,15041,trainPhase
23,1,B2,b,b,True,1303,3,15041,trainPhase
0,2,A1,a,a,True,801,3,15041,trainPhase
1,2,A7,a,a,True,2056,3,15041,trainPhase
0,0,B9,b,a,False,2345,3,15046,trainPhase
1,0,A5,a,a,True,1711,3,15046,trainPhase
2,0,B4,b,b,True,1149,3,15046,trainPhase
3,0,A8,a,a,True,2423,3,15046,trainPhase
4,0,A2,a,a,True,1700,3,15046,trainPhase
5,0,B7,b,b,True,1116,3,15046,trainPhase
6,0,B0,b,a,False,1318,3,15046,trainPhase
7,0,B10,b,b,True,1208,3,15046,trainPhase
8,0,B8,b,b,True,1517,3,15046,trainPhase
9,0,A4,a,a,True,1229,3,15046,trainPhase
10,0,A7,a,a,True,1249,3,15046,trainPhase
11,0,A6,a,a,True,781,3,15046,trainPhase
12,0,A11,a,b,False,933,3,15046,trainPhase
13,0,B3,b,b,True,1269,3,15046,trainPhase
14,0,B5,b,b,True,946,3,15046,trainPhase
15,0,B2,b,b,True,1168,3,15046,trainPhase
16,0,A0,a,a,True,956,3,15046,trainPhase
17,0,B1,b,b,True,999,3,15046,trainPhase
18,0,B11,b,b,True,1070,3,15046,trainPhase
19,0,A3,a,a,True,1245,3,15046,trainPhase
20,0,A1,a,a,True,1032,3,15046,trainPhase
21,0,A9,a,a,True,1800,3,15046,trainPhase
22,0,B6,b,b,True,2061,3,15046,trainPhase
23,0,A10,a,b,False,1725,3,15046,trainPhase
0,1,A8,a,a,True,1230,3,15046,trainPhase
1,1,A7,a,a,True,622,3,15046,trainPhase
2,1,B1,b,b,True,862,3,15046,trainPhase
3,1,B6,b,b,True,1366,3,15046,trainPhase
4,1,B0,b,b,True,885,3,15046,trainPhase
5,1,A4,a,b,False,948,3,15046,trainPhase
6,1,A11,a,b,False,1229,3,15046,trainPhase
7,1,A10,a,b,False,1617,3,15046,trainPhase
8,1,A5,a,a,True,2119,3,15046,trainPhase
9,1,A3,a,a,True,978,3,15046,trainPhase
10,1,A2,a,a,True,734,3,15046,trainPhase
11,1,B7,b,b,True,1028,3,15046,trainPhase
12,1,A1,a,a,True,872,3,15046,trainPhase
13,1,B9,b,b,True,932,3,15046,trainPhase
14,1,B10,b,b,True,854,3,15046,trainPhase
15,1,A6,a,a,True,982,3,15046,trainPhase
16,1,B8,b,b,True,1181,3,15046,trainPhase
17,1,B3,b,b,True,949,3,15046,trainPhase
18,1,B11,b,b,True,1103,3,15046,trainPhase
19,1,B5,b,b,True,773,3,15046,trainPhase
20,1,A9,a,a,True,1021,3,15046,trainPhase
21,1,A0,a,a,True,622,3,15046,trainPhase
22,1,B2,b,b,True,995,3,15046,trainPhase
23,1,B4,b,b,True,565,3,15046,trainPhase
0,0,A10,a,a,True,3259,3,15068,trainPhase
1,0,B0,b,a,False,1317,3,15068,trainPhase
2,0,A6,a,a,True,1945,3,15068,trainPhase
3,0,B7,b,b,True,2901,3,15068,trainPhase
4,0,B1,b,a,False,1260,3,15068,trainPhase
5,0,A0,a,a,True,2722,3,15068,trainPhase
6,0,B6,b,b,True,2991,3,15068,trainPhase
7,0,B9,b,a,False,2902,3,15068,trainPhase
8,0,B8,b,b,True,1550,3,15068,trainPhase
9,0,A11,a,b,False,1413,3,15068,trainPhase
10,0,A2,a,a,True,1198,3,15068,trainPhase
11,0,B11,b,b,True,1693,3,15068,trainPhase
12,0,A9,a,b,False,1725,3,15068,trainPhase
13,0,A8,a,a,True,886,3,15068,trainPhase
14,0,A7,a,a,True,878,3,15068,trainPhase
15,0,A5,a,a,True,2790,3,15068,trainPhase
16,0,A3,a,a,True,2974,3,15068,trainPhase
17,0,B2,b,b,True,1086,3,15068,trainPhase
18,0,A4,a,a,True,1573,3,15068,trainPhase
19,0,B10,b,b,True,909,3,15068,trainPhase
20,0,A1,a,a,True,1342,3,15068,trainPhase
21,0,B3,b,b,True,2725,3,15068,trainPhase
22,0,B5,b,b,True,1414,3,15068,trainPhase
23,0,B4,b,b,True,1493,3,15068,trainPhase
0,1,A0,a,a,True,733,3,15068,trainPhase
1,1,A2,a,a,True,829,3,15068,trainPhase
2,1,A5,a,b,False,877,3,15068,trainPhase
3,1,A8,a,b,False,2125,3,15068,trainPhase
4,1,A4,a,a,True,1453,3,15068,trainPhase
5,1,A11,a,b,False,1221,3,15068,trainPhase
6,1,B4,b,b,True,2038,3,15068,trainPhase
7,1,B10,b,b,True,997,3,15068,trainPhase
8,1,B0,b,b,True,1567,3,15068,trainPhase
9,1,B7,b,b,True,1517,3,15068,trainPhase
10,1,B6,b,b,True,1022,3,15068,trainPhase
11,1,A1,a,a,True,677,3,15068,trainPhase
12,1,A6,a,a,True,659,3,15068,trainPhase
13,1,B8,b,b,True,1462,3,15068,trainPhase
14,1,A7,a,a,True,678,3,15068,trainPhase
15,1,A9,a,b,False,2022,3,15068,trainPhase
16,1,B5,b,b,True,1014,3,15068,trainPhase
17,1,B3,b,b,True,1253,3,15068,trainPhase
18,1,A10,a,b,False,1022,3,15068,trainPhase
19,1,B11,b,b,True,1186,3,15068,trainPhase
20,1,B1,b,a,False,1150,3,15068,trainPhase
21,1,B9,b,b,True,878,3,15068,trainPhase
22,1,B2,b,b,True,1022,3,15068,trainPhase
23,1,A3,a,a,True,1037,3,15068,trainPhase
0,2,B11,b,b,True,1245,3,15068,trainPhase
1,2,A9,a,b,False,1365,3,15068,trainPhase
2,2,B4,b,b,True,773,3,15068,trainPhase
3,2,B7,b,b,True,1638,3,15068,trainPhase
4,2,A3,a,a,True,762,3,15068,trainPhase
5,2,A8,a,a,True,597,3,15068,trainPhase
6,2,B2,b,b,True,758,3,15068,trainPhase
7,2,A5,a,a,True,1222,3,15068,trainPhase
8,2,B10,b,b,True,2253,3,15068,trainPhase
9,2,B9,b,b,True,1114,3,15068,trainPhase
10,2,A0,a,a,True,741,3,15068,trainPhase
11,2,B0,b,b,True,2373,3,15068,trainPhase
12,2,A4,a,a,True,717,3,15068,trainPhase
13,2,B1,b,b,True,1029,3,15068,trainPhase
14,2,A1,a,a,True,661,3,15068,trainPhase
15,2,A2,a,a,True,629,3,15068,trainPhase
16,2,A10,a,b,False,1254,3,15068,trainPhase
17,2,A6,a,a,True,1041,3,15068,trainPhase
18,2,A7,a,a,True,532,3,15068,trainPhase
19,2,B6,b,b,True,950,3,15068,trainPhase
20,2,B8,b,b,True,890,3,15068,trainPhase
21,2,A11,a,b,False,2038,3,15068,trainPhase
22,2,B5,b,b,True,910,3,15068,trainPhase
23,2,B3,b,b,True,1981,3,15068,trainPhase
0,3,B10,b,b,True,2486,3,15068,trainPhase
1,3,B11,b,b,True,742,3,15068,trainPhase
2,3,B2,b,b,True,1893,3,15068,trainPhase
3,3,B6,b,b,True,1382,3,15068,trainPhase
4,3,A1,a,a,True,574,3,15068,trainPhase
5,3,B7,b,b,True,1014,3,15068,trainPhase
6,3,B0,b,b,True,1214,3,15068,trainPhase
7,3,A10,a,b,False,1599,3,15068,trainPhase
8,3,A5,a,a,True,854,3,15068,trainPhase
9,3,B5,b,b,True,766,3,15068,trainPhase
10,3,B9,b,b,True,2395,3,15068,trainPhase
11,3,A3,a,a,True,703,3,15068,trainPhase
12,3,A9,a,a,True,770,3,15068,trainPhase
13,3,A6,a,a,True,605,3,15068,trainPhase
14,3,A2,a,a,True,750,3,15068,trainPhase
15,3,B4,b,b,True,877,3,15068,trainPhase
16,3,A11,a,b,False,1884,3,15068,trainPhase
17,3,B8,b,b,True,3261,3,15068,trainPhase
18,3,A4,a,a,True,1193,3,15068,trainPhase
19,3,A7,a,a,True,869,3,15068,trainPhase
20,3,A8,a,a,True,860,3,15068,trainPhase
21,3,B3,b,b,True,1488,3,15068,trainPhase
22,3,B1,b,a,False,1118,3,15068,trainPhase
23,3,A0,a,a,True,934,3,15068,trainPhase
0,4,A4,a,a,True,605,3,15068,trainPhase
1,4,A8,a,a,True,798,3,15068,trainPhase
2,4,B7,b,b,True,2150,3,15068,trainPhase
3,4,B0,b,b,True,1262,3,15068,trainPhase
4,4,A9,a,a,True,1142,3,15068,trainPhase
5,4,A0,a,a,True,541,3,15068,trainPhase
6,4,B8,b,b,True,1244,3,15068,trainPhase
7,4,A6,a,a,True,701,3,15068,trainPhase
8,4,B6,b,b,True,886,3,15068,trainPhase
9,4,B11,b,b,True,854,3,15068,trainPhase
10,4,B2,b,b,True,1151,3,15068,trainPhase
11,4,A3,a,a,True,917,3,15068,trainPhase
12,4,A7,a,a,True,757,3,15068,trainPhase
13,4,A10,a,a,True,1934,3,15068,trainPhase
14,4,B10,b,b,True,814,3,15068,trainPhase
0,0,A3,a,a,True,4610,3,15073,trainPhase
1,0,B7,b,b,True,2558,3,15073,trainPhase
2,0,A0,a,a,True,2880,3,15073,trainPhase
3,0,B9,b,b,True,1544,3,15073,trainPhase
4,0,B8,b,b,True,2118,3,15073,trainPhase
5,0,B3,b,a,False,2439,3,15073,trainPhase
6,0,B6,b,a,False,1455,3,15073,trainPhase
7,0,B10,b,b,True,1430,3,15073,trainPhase
8,0,A10,a,a,True,1270,3,15073,trainPhase
9,0,A1,a,b,False,2377,3,15073,trainPhase
10,0,A11,a,a,True,2152,3,15073,trainPhase
11,0,B5,b,b,True,1518,3,15073,trainPhase
12,0,A8,a,a,True,2242,3,15073,trainPhase
13,0,A4,a,a,True,1417,3,15073,trainPhase
14,0,B1,b,a,False,1591,3,15073,trainPhase
15,0,B4,b,b,True,1280,3,15073,trainPhase
16,0,A5,a,a,True,1124,3,15073,trainPhase
17,0,B2,b,b,True,1009,3,15073,trainPhase
18,0,A9,a,b,False,2554,3,15073,trainPhase
19,0,A2,a,b,False,2528,3,15073,trainPhase
20,0,A6,a,a,True,1109,3,15073,trainPhase
21,0,B0,b,a,False,1589,3,15073,trainPhase
22,0,B11,b,b,True,1078,3,15073,trainPhase
23,0,A7,a,a,True,1848,3,15073,trainPhase
0,1,B0,b,a,False,1661,3,15073,trainPhase
1,1,B8,b,b,True,1197,3,15073,trainPhase
2,1,B5,b,b,True,1671,3,15073,trainPhase
3,1,B4,b,b,True,1153,3,15073,trainPhase
4,1,B1,b,a,False,2203,3,15073,trainPhase
5,1,B10,b,b,True,771,3,15073,trainPhase
6,1,B11,b,b,True,880,3,15073,trainPhase
7,1,B6,b,a,False,1737,3,15073,trainPhase
8,1,A3,a,a,True,1340,3,15073,trainPhase
9,1,A10,a,b,False,1924,3,15073,trainPhase
10,1,A11,a,a,True,1488,3,15073,trainPhase
11,1,B7,b,b,True,1069,3,15073,trainPhase
12,1,A0,a,a,True,1371,3,15073,trainPhase
13,1,A1,a,a,True,1213,3,15073,trainPhase
14,1,A8,a,a,True,2086,3,15073,trainPhase
15,1,A6,a,a,True,1040,3,15073,trainPhase
16,1,B9,b,b,True,959,3,15073,trainPhase
17,1,A9,a,a,True,2881,3,15073,trainPhase
18,1,A2,a,a,True,1149,3,15073,trainPhase
19,1,B2,b,b,True,1263,3,15073,trainPhase
20,1,A7,a,a,True,1287,3,15073,trainPhase
21,1,A5,a,b,False,1615,3,15073,trainPhase
22,1,A4,a,a,True,1588,3,15073,trainPhase
23,1,B3,b,b,True,985,3,15073,trainPhase
0,2,B1,b,b,True,3549,3,15073,trainPhase
1,2,A1,a,a,True,1330,3,15073,trainPhase
2,2,A4,a,a,True,4850,3,15073,trainPhase
3,2,B10,b,b,True,1250,3,15073,trainPhase
4,2,B11,b,b,True,3004,3,15073,trainPhase
5,2,A5,a,a,True,6127,3,15073,trainPhase
6,2,B2,b,b,True,1164,3,15073,trainPhase
7,2,B5,b,b,True,1069,3,15073,trainPhase
8,2,A11,a,a,True,3669,3,15073,trainPhase
9,2,B4,b,b,True,918,3,15073,trainPhase
10,2,B9,b,b,True,1072,3,15073,trainPhase
11,2,B8,b,b,True,2887,3,15073,trainPhase
12,2,B3,b,b,True,1431,3,15073,trainPhase
13,2,A6,a,a,True,745,3,15073,trainPhase
0,0,B4,b,a,False,2654,3,15088,trainPhase
1,0,A0,a,b,False,4076,3,15088,trainPhase
2,0,B5,b,b,True,1523,3,15088,trainPhase
3,0,B0,b,a,False,2237,3,15088,trainPhase
4,0,B7,b,b,True,1438,3,15088,trainPhase
5,0,A4,a,b,False,1544,3,15088,trainPhase
6,0,A3,a,a,True,3438,3,15088,trainPhase
7,0,B6,b,b,True,1932,3,15088,trainPhase
8,0,A11,a,b,False,3236,3,15088,trainPhase
9,0,A9,a,a,True,2021,3,15088,trainPhase
10,0,A2,a,a,True,1657,3,15088,trainPhase
11,0,A8,a,b,False,1651,3,15088,trainPhase
12,0,B10,b,b,True,1234,3,15088,trainPhase
13,0,B8,b,b,True,1757,3,15088,trainPhase
14,0,B11,b,b,True,1680,3,15088,trainPhase
15,0,A10,a,a,True,1458,3,15088,trainPhase
16,0,A7,a,a,True,3051,3,15088,trainPhase
17,0,B1,b,a,False,2166,3,15088,trainPhase
18,0,B9,b,b,True,1172,3,15088,trainPhase
19,0,B2,b,a,False,2768,3,15088,trainPhase
20,0,A5,a,a,True,1085,3,15088,trainPhase
21,0,A1,a,a,True,1121,3,15088,trainPhase
22,0,B3,b,b,True,1686,3,15088,trainPhase
23,0,A6,a,b,False,1959,3,15088,trainPhase
0,1,A1,a,a,True,810,3,15088,trainPhase
1,1,B4,b,b,True,1321,3,15088,trainPhase
2,1,A8,a,b,False,2982,3,15088,trainPhase
3,1,B9,b,b,True,916,3,15088,trainPhase
4,1,B8,b,b,True,1027,3,15088,trainPhase
5,1,A7,a,a,True,1350,3,15088,trainPhase
6,1,B2,b,b,True,1217,3,15088,trainPhase
7,1,A9,a,b,False,1665,3,15088,trainPhase
8,1,A10,a,a,True,1443,3,15088,trainPhase
9,1,A2,a,a,True,1361,3,15088,trainPhase
10,1,B1,b,b,True,1465,3,15088,trainPhase
11,1,B3,b,b,True,1323,3,15088,trainPhase
12,1,B7,b,b,True,1223,3,15088,trainPhase
13,1,B0,b,b,True,1627,3,15088,trainPhase
14,1,A4,a,a,True,1274,3,15088,trainPhase
15,1,A5,a,a,True,1307,3,15088,trainPhase
16,1,A0,a,a,True,1114,3,15088,trainPhase
17,1,A11,a,b,False,2641,3,15088,trainPhase
18,1,B6,b,b,True,1101,3,15088,trainPhase
19,1,A3,a,a,True,1045,3,15088,trainPhase
20,1,B5,b,b,True,1675,3,15088,trainPhase
21,1,A6,a,a,True,1249,3,15088,trainPhase
22,1,B11,b,b,True,1173,3,15088,trainPhase
23,1,B10,b,b,True,1288,3,15088,trainPhase
0,2,A5,a,a,True,1437,3,15088,trainPhase
1,2,B2,b,b,True,1807,3,15088,trainPhase
2,2,B9,b,b,True,1259,3,15088,trainPhase
3,2,A6,a,a,True,1510,3,15088,trainPhase
4,2,B11,b,b,True,1060,3,15088,trainPhase
5,2,A9,a,a,True,1709,3,15088,trainPhase
6,2,A0,a,a,True,986,3,15088,trainPhase
7,2,B7,b,b,True,1026,3,15088,trainPhase
8,2,B1,b,b,True,1162,3,15088,trainPhase
9,2,A10,a,b,False,2241,3,15088,trainPhase
10,2,B10,b,b,True,984,3,15088,trainPhase
11,2,A4,a,a,True,981,3,15088,trainPhase
12,2,A1,a,a,True,908,3,15088,trainPhase
13,2,A7,a,a,True,1326,3,15088,trainPhase
14,2,B6,b,b,True,967,3,15088,trainPhase
15,2,B0,b,b,True,1135,3,15088,trainPhase
16,2,B4,b,b,True,1921,3,15088,trainPhase
17,2,A8,a,a,True,1218,3,15088,trainPhase
18,2,B8,b,b,True,1463,3,15088,trainPhase
19,2,B3,b,b,True,1383,3,15088,trainPhase
20,2,A3,a,a,True,1001,3,15088,trainPhase
21,2,B5,b,b,True,1652,3,15088,trainPhase
22,2,A11,a,b,False,3295,3,15088,trainPhase
23,2,A2,a,a,True,704,3,15088,trainPhase
0,3,A10,a,a,True,953,3,15088,trainPhase
1,3,A11,a,b,False,1606,3,15088,trainPhase
2,3,B1,b,b,True,1420,3,15088,trainPhase
3,3,B0,b,b,True,1261,3,15088,trainPhase
4,3,A7,a,b,False,1358,3,15088,trainPhase
5,3,B9,b,b,True,853,3,15088,trainPhase
6,3,B4,b,b,True,1236,3,15088,trainPhase
7,3,B8,b,b,True,908,3,15088,trainPhase
8,3,A2,a,a,True,1098,3,15088,trainPhase
9,3,A4,a,a,True,1309,3,15088,trainPhase
10,3,A1,a,a,True,1135,3,15088,trainPhase
11,3,B7,b,b,True,1108,3,15088,trainPhase
12,3,A8,a,a,True,1353,3,15088,trainPhase
13,3,A6,a,a,True,1683,3,15088,trainPhase
14,3,B3,b,b,True,1254,3,15088,trainPhase
15,3,B11,b,b,True,1063,3,15088,trainPhase
16,3,B2,b,b,True,1215,3,15088,trainPhase
17,3,B6,b,b,True,980,3,15088,trainPhase
18,3,A5,a,a,True,1077,3,15088,trainPhase
19,3,A9,a,a,True,1408,3,15088,trainPhase
20,3,B10,b,b,True,1023,3,15088,trainPhase
0,0,B11,b,a,False,3270,3,15093,trainPhase
1,0,B7,b,a,False,1521,3,15093,trainPhase
2,0,A10,a,b,False,1910,3,15093,trainPhase
3,0,B10,b,b,True,3123,3,15093,trainPhase
4,0,A8,a,a,True,1290,3,15093,trainPhase
5,0,B0,b,b,True,1993,3,15093,trainPhase
6,0,B5,b,b,True,1728,3,15093,trainPhase
7,0,B9,b,b,True,1436,3,15093,trainPhase
8,0,A1,a,a,True,1092,3,15093,trainPhase
9,0,B3,b,b,True,1879,3,15093,trainPhase
10,0,A4,a,a,True,2115,3,15093,trainPhase
11,0,B8,b,b,True,1048,3,15093,trainPhase
12,0,A9,a,b,False,3105,3,15093,trainPhase
13,0,B6,b,b,True,1412,3,15093,trainPhase
14,0,A6,a,a,True,3958,3,15093,trainPhase
15,0,A2,a,a,True,1342,3,15093,trainPhase
16,0,A7,a,b,False,1216,3,15093,trainPhase
17,0,A5,a,a,True,2872,3,15093,trainPhase
18,0,A0,a,a,True,3806,3,15093,trainPhase
19,0,B4,b,b,True,2023,3,15093,trainPhase
20,0,A11,a,b,False,1396,3,15093,trainPhase
21,0,B2,b,b,True,1283,3,15093,trainPhase
22,0,B1,b,b,True,2215,3,15093,trainPhase
23,0,A3,a,a,True,1150,3,15093,trainPhase
0,1,B6,b,b,True,1393,3,15093,trainPhase
1,1,B11,b,b,True,2196,3,15093,trainPhase
2,1,A9,a,a,True,3383,3,15093,trainPhase
3,1,A0,a,a,True,1061,3,15093,trainPhase
4,1,B5,b,b,True,2158,3,15093,trainPhase
5,1,B9,b,b,True,1118,3,15093,trainPhase
6,1,A10,a,a,True,4974,3,15093,trainPhase
7,1,A2,a,a,True,1445,3,15093,trainPhase
8,1,A8,a,a,True,2455,3,15093,trainPhase
9,1,A5,a,a,True,1837,3,15093,trainPhase
10,1,B1,b,b,True,2691,3,15093,trainPhase
11,1,B7,b,b,True,1533,3,15093,trainPhase
12,1,A1,a,a,True,3693,3,15093,trainPhase
0,0,A10,a,b,False,6140,3,15098,trainPhase
1,0,A2,a,a,True,1190,3,15098,trainPhase
2,0,B1,b,a,False,1391,3,15098,trainPhase
3,0,A4,a,a,True,1461,3,15098,trainPhase
4,0,A0,a,b,False,1678,3,15098,trainPhase
5,0,A6,a,b,False,5277,3,15098,trainPhase
6,0,A9,a,a,True,1659,3,15098,trainPhase
7,0,A8,a,a,True,1334,3,15098,trainPhase
8,0,B10,b,b,True,1504,3,15098,trainPhase
9,0,A5,a,a,True,4114,3,15098,trainPhase
10,0,B7,b,b,True,1207,3,15098,trainPhase
11,0,B11,b,b,True,965,3,15098,trainPhase
12,0,B9,b,b,True,936,3,15098,trainPhase
13,0,B2,b,b,True,1086,3,15098,trainPhase
14,0,B4,b,b,True,926,3,15098,trainPhase
15,0,B3,b,b,True,1430,3,15098,trainPhase
16,0,B8,b,b,True,1414,3,15098,trainPhase
17,0,B5,b,b,True,969,3,15098,trainPhase
18,0,A11,a,b,False,1117,3,15098,trainPhase
19,0,B0,b,b,True,1649,3,15098,trainPhase
20,0,A1,a,a,True,1100,3,15098,trainPhase
21,0,A3,a,a,True,926,3,15098,trainPhase
22,0,A7,a,b,False,1501,3,15098,trainPhase
23,0,B6,b,b,True,986,3,15098,trainPhase
0,1,A3,a,a,True,2357,3,15098,trainPhase
1,1,A2,a,a,True,1086,3,15098,trainPhase
2,1,A6,a,a,True,1087,3,15098,trainPhase
3,1,A8,a,a,True,1371,3,15098,trainPhase
4,1,A10,a,a,True,1003,3,15098,trainPhase
5,1,B2,b,b,True,749,3,15098,trainPhase
6,1,B11,b,b,True,727,3,15098,trainPhase
7,1,A5,a,a,True,1340,3,15098,trainPhase
8,1,A11,a,a,True,1042,3,15098,trainPhase
9,1,B10,b,b,True,1113,3,15098,trainPhase
10,1,B5,b,b,True,981,3,15098,trainPhase
11,1,B0,b,b,True,1502,3,15098,trainPhase
12,1,A7,a,a,True,1646,3,15098,trainPhase
13,1,A9,a,a,True,1277,3,15098,trainPhase
14,1,B3,b,b,True,1583,3,15098,trainPhase
0,0,A5,a,a,True,1830,3,15098,trainPhase
1,0,B6,b,b,True,768,3,15098,trainPhase
2,0,A0,a,a,True,1037,3,15098,trainPhase
3,0,B0,b,b,True,760,3,15098,trainPhase
4,0,A3,a,b,False,590,3,15098,trainPhase
5,0,B2,b,b,True,1006,3,15098,trainPhase
6,0,A9,a,a,True,1179,3,15098,trainPhase
7,0,B7,b,b,True,1373,3,15098,trainPhase
8,0,A2,a,a,True,1275,3,15098,trainPhase
9,0,A4,a,a,True,951,3,15098,trainPhase
10,0,A11,a,b,False,1302,3,15098,trainPhase
11,0,A1,a,a,True,1429,3,15098,trainPhase
12,0,B11,b,b,True,638,3,15098,trainPhase
13,0,B9,b,b,True,558,3,15098,trainPhase
14,0,B8,b,b,True,664,3,15098,trainPhase
15,0,B4,b,b,True,438,3,15098,trainPhase
16,0,A6,a,a,True,1366,3,15098,trainPhase
17,0,B5,b,b,True,796,3,15098,trainPhase
18,0,A7,a,b,False,734,3,15098,trainPhase
19,0,B10,b,b,True,1678,3,15098,trainPhase
20,0,A10,a,b,False,958,3,15098,trainPhase
21,0,B1,b,a,False,1198,3,15098,trainPhase
22,0,A8,a,a,True,1742,3,15098,trainPhase
23,0,B3,b,b,True,636,3,15098,trainPhase
0,1,B5,b,b,True,678,3,15098,trainPhase
1,1,B4,b,b,True,445,3,15098,trainPhase
2,1,A4,a,a,True,870,3,15098,trainPhase
3,1,A10,a,a,True,1469,3,15098,trainPhase
4,1,B10,b,b,True,580,3,15098,trainPhase
5,1,A11,a,b,False,1669,3,15098,trainPhase
6,1,A8,a,b,False,670,3,15098,trainPhase
7,1,A5,a,a,True,869,3,15098,trainPhase
8,1,B2,b,b,True,750,3,15098,trainPhase
9,1,B1,b,b,True,758,3,15098,trainPhase
10,1,B11,b,b,True,582,3,15098,trainPhase
11,1,B3,b,b,True,685,3,15098,trainPhase
12,1,B7,b,b,True,517,3,15098,trainPhase
13,1,A3,a,a,True,1070,3,15098,trainPhase
14,1,A1,a,a,True,550,3,15098,trainPhase
15,1,B9,b,b,True,846,3,15098,trainPhase
16,1,A0,a,a,True,974,3,15098,trainPhase
17,1,A2,a,a,True,589,3,15098,trainPhase
18,1,A6,a,a,True,1030,3,15098,trainPhase
19,1,B0,b,b,True,1047,3,15098,trainPhase
20,1,A9,a,b,False,926,3,15098,trainPhase
21,1,B6,b,b,True,715,3,15098,trainPhase
22,1,B8,b,b,True,542,3,15098,trainPhase
23,1,A7,a,a,True,1014,3,15098,trainPhase
0,2,A4,a,a,True,1006,3,15098,trainPhase
1,2,B0,b,b,True,1251,3,15098,trainPhase
2,2,A6,a,a,True,981,3,15098,trainPhase
3,2,A7,a,a,True,974,3,15098,trainPhase
4,2,A9,a,a,True,1337,3,15098,trainPhase
5,2,B9,b,b,True,634,3,15098,trainPhase
6,2,B3,b,a,False,934,3,15098,trainPhase
7,2,A1,a,a,True,918,3,15098,trainPhase
8,2,B7,b,b,True,696,3,15098,trainPhase
9,2,A8,a,b,False,646,3,15098,trainPhase
10,2,B10,b,b,True,664,3,15098,trainPhase
11,2,B11,b,b,True,934,3,15098,trainPhase
12,2,B1,b,b,True,558,3,15098,trainPhase
13,2,A0,a,a,True,998,3,15098,trainPhase
14,2,A11,a,a,True,734,3,15098,trainPhase
15,2,B2,b,a,False,933,3,15098,trainPhase
16,2,A2,a,a,True,942,3,15098,trainPhase
17,2,B5,b,b,True,867,3,15098,trainPhase
18,2,A3,a,a,True,937,3,15098,trainPhase
19,2,B4,b,a,False,798,3,15098,trainPhase
20,2,B6,b,b,True,1053,3,15098,trainPhase
21,2,A5,a,a,True,885,3,15098,trainPhase
22,2,A10,a,a,True,905,3,15098,trainPhase
23,2,B8,b,b,True,1101,3,15098,trainPhase
0,3,B10,b,b,True,772,3,15098,trainPhase
1,3,A11,a,b,False,870,3,15098,trainPhase
2,3,A8,a,a,True,1894,3,15098,trainPhase
3,3,A2,a,a,True,1370,3,15098,trainPhase
4,3,B11,b,b,True,1035,3,15098,trainPhase
5,3,B3,b,b,True,782,3,15098,trainPhase
6,3,A10,a,b,False,484,3,15098,trainPhase
7,3,A4,a,b,False,540,3,15098,trainPhase
8,3,B1,b,b,True,1182,3,15098,trainPhase
9,3,B5,b,b,True,750,3,15098,trainPhase
10,3,B6,b,b,True,621,3,15098,trainPhase
11,3,B9,b,b,True,958,3,15098,trainPhase
12,3,A7,a,b,False,838,3,15098,trainPhase
13,3,A9,a,b,False,526,3,15098,trainPhase
14,3,B2,b,b,True,622,3,15098,trainPhase
15,3,B4,b,b,True,976,3,15098,trainPhase
16,3,B0,b,a,False,1421,3,15098,trainPhase
17,3,B8,b,b,True,830,3,15098,trainPhase
18,3,B7,b,b,True,526,3,15098,trainPhase
19,3,A6,a,a,True,1814,3,15098,trainPhase
20,3,A3,a,a,True,739,3,15098,trainPhase
21,3,A0,a,a,True,690,3,15098,trainPhase
22,3,A1,a,a,True,1161,3,15098,trainPhase
23,3,A5,a,a,True,678,3,15098,trainPhase
0,4,A11,a,a,True,686,3,15098,trainPhase
1,4,A0,a,a,True,958,3,15098,trainPhase
2,4,B9,b,b,True,862,3,15098,trainPhase
3,4,B10,b,b,True,477,3,15098,trainPhase
4,4,A9,a,b,False,517,3,15098,trainPhase
5,4,B3,b,b,True,597,3,15098,trainPhase
6,4,B6,b,b,True,830,3,15098,trainPhase
7,4,B8,b,b,True,579,3,15098,trainPhase
8,4,A10,a,a,True,820,3,15098,trainPhase
9,4,B7,b,b,True,958,3,15098,trainPhase
10,4,B11,b,b,True,558,3,15098,trainPhase
11,4,B4,b,b,True,438,3,15098,trainPhase
12,4,B5,b,b,True,917,3,15098,trainPhase
13,4,A2,a,a,True,894,3,15098,trainPhase
14,4,A1,a,a,True,742,3,15098,trainPhase
15,4,A5,a,a,True,798,3,15098,trainPhase
16,4,B1,b,b,True,1189,3,15098,trainPhase
17,4,B2,b,b,True,453,3,15098,trainPhase
18,4,A7,a,b,False,508,3,15098,trainPhase
19,4,A3,a,a,True,769,3,15098,trainPhase
20,4,A4,a,a,True,630,3,15098,trainPhase
21,4,A6,a,a,True,661,3,15098,trainPhase
22,4,B0,b,a,False,662,3,15098,trainPhase
23,4,A8,a,a,True,663,3,15098,trainPhase
0,5,A6,a,a,True,1475,3,15098,trainPhase
1,5,A2,a,a,True,814,3,15098,trainPhase
2,5,B8,b,b,True,638,3,15098,trainPhase
3,5,A10,a,b,False,646,3,15098,trainPhase
4,5,B2,b,a,False,1598,3,15098,trainPhase
5,5,A9,a,b,False,646,3,15098,trainPhase
6,5,B7,b,b,True,622,3,15098,trainPhase
7,5,A11,a,b,False,662,3,15098,trainPhase
8,5,A3,a,a,True,806,3,15098,trainPhase
9,5,B9,b,b,True,795,3,15098,trainPhase
10,5,A1,a,a,True,974,3,15098,trainPhase
11,5,B4,b,b,True,1228,3,15098,trainPhase
12,5,B1,b,b,True,1270,3,15098,trainPhase
13,5,B5,b,b,True,806,3,15098,trainPhase
14,5,B3,b,b,True,622,3,15098,trainPhase
15,5,A5,a,a,True,894,3,15098,trainPhase
16,5,B10,b,b,True,863,3,15098,trainPhase
17,5,A4,a,a,True,1134,3,15098,trainPhase
18,5,A8,a,a,True,1105,3,15098,trainPhase
19,5,A0,a,a,True,782,3,15098,trainPhase
20,5,B0,b,a,False,2452,3,15098,trainPhase
21,5,B11,b,b,True,878,3,15098,trainPhase
22,5,A7,a,a,True,974,3,15098,trainPhase
23,5,B6,b,b,True,1222,3,15098,trainPhase
0,6,B7,b,b,True,558,3,15098,trainPhase
1,6,B0,b,b,True,1094,3,15098,trainPhase
2,6,B9,b,b,True,534,3,15098,trainPhase
3,6,A2,a,a,True,853,3,15098,trainPhase
4,6,A4,a,a,True,839,3,15098,trainPhase
5,6,B11,b,b,True,1247,3,15098,trainPhase
6,6,A0,a,a,True,1324,3,15098,trainPhase
7,6,A5,a,a,True,788,3,15098,trainPhase
8,6,A1,a,a,True,956,3,15098,trainPhase
9,6,A6,a,a,True,966,3,15098,trainPhase
10,6,A3,a,a,True,701,3,15098,trainPhase
11,6,A10,a,a,True,792,3,15098,trainPhase
12,6,B2,b,a,False,722,3,15098,trainPhase
13,6,A8,a,b,False,662,3,15098,trainPhase
14,6,A7,a,a,True,1142,3,15098,trainPhase
15,6,B5,b,b,True,1033,3,15098,trainPhase
16,6,B8,b,b,True,783,3,15098,trainPhase
17,6,B10,b,b,True,589,3,15098,trainPhase
18,6,B1,b,b,True,621,3,15098,trainPhase
19,6,B3,b,b,True,516,3,15098,trainPhase
20,6,B6,b,b,True,822,3,15098,trainPhase
21,6,A11,a,a,True,1041,3,15098,trainPhase
22,6,A9,a,a,True,925,3,15098,trainPhase
23,6,B4,b,b,True,1153,3,15098,trainPhase
0,7,B11,b,b,True,627,3,15098,trainPhase
1,7,A3,a,a,True,917,3,15098,trainPhase
2,7,B3,b,b,True,1966,3,15098,trainPhase
3,7,B4,b,b,True,864,3,15098,trainPhase
4,7,B1,b,b,True,1221,3,15098,trainPhase
5,7,B2,b,b,True,782,3,15098,trainPhase
0,0,B11,b,a,False,2612,3,15103,trainPhase
1,0,A1,a,a,True,1250,3,15103,trainPhase
2,0,A4,a,b,False,1535,3,15103,trainPhase
3,0,A3,a,a,True,1358,3,15103,trainPhase
4,0,B2,b,b,True,1333,3,15103,trainPhase
5,0,A11,a,a,True,1047,3,15103,trainPhase
6,0,B4,b,b,True,949,3,15103,trainPhase
7,0,B0,b,a,False,858,3,15103,trainPhase
8,0,A6,a,a,True,1051,3,15103,trainPhase
9,0,B3,b,b,True,1010,3,15103,trainPhase
10,0,A2,a,a,True,1551,3,15103,trainPhase
11,0,B8,b,b,True,1095,3,15103,trainPhase
12,0,B9,b,b,True,1096,3,15103,trainPhase
13,0,B7,b,a,False,1323,3,15103,trainPhase
14,0,A7,a,a,True,844,3,15103,trainPhase
15,0,B1,b,b,True,1055,3,15103,trainPhase
16,0,B10,b,b,True,935,3,15103,trainPhase
17,0,A0,a,a,True,980,3,15103,trainPhase
18,0,B6,b,a,False,2257,3,15103,trainPhase
19,0,A9,a,a,True,2278,3,15103,trainPhase
20,0,A5,a,b,False,972,3,15103,trainPhase
21,0,A8,a,a,True,938,3,15103,trainPhase
22,0,B5,b,b,True,1112,3,15103,trainPhase
23,0,A10,a,a,True,1888,3,15103,trainPhase
0,1,B4,b,b,True,913,3,15103,trainPhase
1,1,B8,b,b,True,1002,3,15103,trainPhase
2,1,A3,a,a,True,1134,3,15103,trainPhase
3,1,A11,a,a,True,1315,3,15103,trainPhase
4,1,B10,b,b,True,843,3,15103,trainPhase
5,1,A1,a,a,True,833,3,15103,trainPhase
6,1,B3,b,b,True,871,3,15103,trainPhase
7,1,A4,a,a,True,880,3,15103,trainPhase
8,1,A5,a,a,True,1034,3,15103,trainPhase
9,1,A0,a,a,True,917,3,15103,trainPhase
10,1,A9,a,a,True,1097,3,15103,trainPhase
11,1,A7,a,a,True,911,3,15103,trainPhase
12,1,B7,b,a,False,1344,3,15103,trainPhase
13,1,B1,b,b,True,756,3,15103,trainPhase
14,1,B2,b,b,True,735,3,15103,trainPhase
15,1,A8,a,a,True,1019,3,15103,trainPhase
16,1,A6,a,a,True,977,3,15103,trainPhase
17,1,A2,a,a,True,1541,3,15103,trainPhase
18,1,B5,b,b,True,1138,3,15103,trainPhase
19,1,B0,b,b,True,1552,3,15103,trainPhase
20,1,A10,a,b,False,4227,3,15103,trainPhase
21,1,B6,b,a,False,946,3,15103,trainPhase
22,1,B11,b,b,True,1021,3,15103,trainPhase
23,1,B9,b,b,True,2368,3,15103,trainPhase
0,2,A11,a,b,False,831,3,15103,trainPhase
1,2,A6,a,a,True,924,3,15103,trainPhase
2,2,A8,a,a,True,1087,3,15103,trainPhase
3,2,A3,a,a,True,1730,3,15103,trainPhase
4,2,A10,a,a,True,1639,3,15103,trainPhase
5,2,B0,b,a,False,892,3,15103,trainPhase
6,2,A1,a,a,True,1177,3,15103,trainPhase
7,2,A5,a,b,False,1116,3,15103,trainPhase
8,2,B5,b,b,True,1056,3,15103,trainPhase
9,2,B7,b,a,False,840,3,15103,trainPhase
10,2,B2,b,b,True,1656,3,15103,trainPhase
11,2,B10,b,b,True,3193,3,15103,trainPhase
12,2,A0,a,a,True,772,3,15103,trainPhase
13,2,B3,b,b,True,1218,3,15103,trainPhase
14,2,B9,b,a,False,993,3,15103,trainPhase
15,2,B1,b,a,False,2680,3,15103,trainPhase
16,2,B4,b,b,True,928,3,15103,trainPhase
17,2,A9,a,a,True,943,3,15103,trainPhase
18,2,A4,a,a,True,1224,3,15103,trainPhase
19,2,B8,b,b,True,1541,3,15103,trainPhase
20,2,B11,b,b,True,974,3,15103,trainPhase
21,2,B6,b,a,False,1089,3,15103,trainPhase
22,2,A2,a,a,True,860,3,15103,trainPhase
23,2,A7,a,a,True,797,3,15103,trainPhase
0,3,A6,a,a,True,740,3,15103,trainPhase
1,3,B9,b,b,True,1197,3,15103,trainPhase
2,3,A4,a,b,False,795,3,15103,trainPhase
3,3,A10,a,a,True,1312,3,15103,trainPhase
4,3,B4,b,b,True,980,3,15103,trainPhase
5,3,A8,a,a,True,934,3,15103,trainPhase
6,3,A9,a,a,True,1328,3,15103,trainPhase
7,3,A11,a,a,True,948,3,15103,trainPhase
8,3,B0,b,a,False,1160,3,15103,trainPhase
9,3,B5,b,b,True,1096,3,15103,trainPhase
10,3,B10,b,b,True,980,3,15103,trainPhase
11,3,A2,a,a,True,931,3,15103,trainPhase
12,3,B7,b,a,False,1347,3,15103,trainPhase
13,3,A5,a,a,True,1304,3,15103,trainPhase
14,3,B8,b,b,True,3844,3,15103,trainPhase
15,3,A3,a,a,True,1012,3,15103,trainPhase
16,3,A0,a,a,True,944,3,15103,trainPhase
17,3,B11,b,b,True,976,3,15103,trainPhase
18,3,B2,b,a,False,2905,3,15103,trainPhase
19,3,B6,b,a,False,936,3,15103,trainPhase
20,3,B3,b,b,True,1082,3,15103,trainPhase
21,3,A1,a,a,True,765,3,15103,trainPhase
22,3,B1,b,a,False,1036,3,15103,trainPhase
23,3,A7,a,a,True,822,3,15103,trainPhase
0,4,A2,a,a,True,1006,3,15103,trainPhase
1,4,A6,a,a,True,726,3,15103,trainPhase
2,4,A3,a,a,True,841,3,15103,trainPhase
3,4,B1,b,b,True,652,3,15103,trainPhase
4,4,B10,b,b,True,944,3,15103,trainPhase
5,4,B11,b,b,True,768,3,15103,trainPhase
6,4,B4,b,b,True,761,3,15103,trainPhase
7,4,A0,a,a,True,720,3,15103,trainPhase
8,4,A1,a,a,True,756,3,15103,trainPhase
9,4,B8,b,b,True,773,3,15103,trainPhase
10,4,A4,a,b,False,783,3,15103,trainPhase
11,4,A8,a,a,True,686,3,15103,trainPhase
12,4,A10,a,a,True,1431,3,15103,trainPhase
13,4,A5,a,a,True,837,3,15103,trainPhase
14,4,B5,b,b,True,855,3,15103,trainPhase
15,4,A7,a,a,True,1303,3,15103,trainPhase
16,4,B9,b,b,True,955,3,15103,trainPhase
17,4,B3,b,b,True,822,3,15103,trainPhase
18,4,B2,b,b,True,885,3,15103,trainPhase
19,4,B6,b,a,False,912,3,15103,trainPhase
20,4,A11,a,b,False,737,3,15103,trainPhase
21,4,A9,a,a,True,771,3,15103,trainPhase
22,4,B0,b,a,False,898,3,15103,trainPhase
23,4,B7,b,a,False,1101,3,15103,trainPhase
0,5,A8,a,a,True,724,3,15103,trainPhase
1,5,B7,b,b,True,1325,3,15103,trainPhase
2,5,A11,a,b,False,663,3,15103,trainPhase
3,5,B2,b,a,False,1677,3,15103,trainPhase
4,5,A1,a,a,True,866,3,15103,trainPhase
5,5,B8,b,b,True,877,3,15103,trainPhase
6,5,A9,a,a,True,1358,3,15103,trainPhase
7,5,A7,a,a,True,777,3,15103,trainPhase
8,5,B1,b,a,False,1645,3,15103,trainPhase
9,5,B5,b,b,True,910,3,15103,trainPhase
10,5,A4,a,b,False,1196,3,15103,trainPhase
11,5,A10,a,a,True,2056,3,15103,trainPhase
12,5,B11,b,b,True,802,3,15103,trainPhase
13,5,A6,a,a,True,758,3,15103,trainPhase
14,5,A0,a,a,True,763,3,15103,trainPhase
15,5,B3,b,b,True,5624,3,15103,trainPhase
16,5,B6,b,a,False,1093,3,15103,trainPhase
17,5,A2,a,a,True,1911,3,15103,trainPhase
18,5,B0,b,a,False,906,3,15103,trainPhase
19,5,B4,b,b,True,824,3,15103,trainPhase
20,5,A3,a,b,False,1529,3,15103,trainPhase
21,5,B9,b,b,True,1702,3,15103,trainPhase
22,5,A5,a,b,False,1436,3,15103,trainPhase
23,5,B10,b,b,True,1264,3,15103,trainPhase
0,6,B3,b,b,True,911,3,15103,trainPhase
1,6,A11,a,a,True,1460,3,15103,trainPhase
2,6,B4,b,b,True,1276,3,15103,trainPhase
3,6,A3,a,a,True,800,3,15103,trainPhase
4,6,A4,a,a,True,806,3,15103,trainPhase
5,6,B2,b,b,True,816,3,15103,trainPhase
6,6,A2,a,a,True,699,3,15103,trainPhase
7,6,A6,a,a,True,972,3,15103,trainPhase
8,6,A5,a,b,False,1342,3,15103,trainPhase
9,6,B11,b,b,True,752,3,15103,trainPhase
10,6,A9,a,a,True,581,3,15103,trainPhase
11,6,A7,a,a,True,586,3,15103,trainPhase
12,6,B0,b,a,False,940,3,15103,trainPhase
13,6,B10,b,b,True,1126,3,15103,trainPhase
14,6,B8,b,a,False,1389,3,15103,trainPhase
15,6,B7,b,a,False,1211,3,15103,trainPhase
16,6,B6,b,a,False,752,3,15103,trainPhase
17,6,A0,a,a,True,777,3,15103,trainPhase
18,6,A10,a,a,True,869,3,15103,trainPhase
19,6,A1,a,a,True,931,3,15103,trainPhase
20,6,B9,b,b,True,1394,3,15103,trainPhase
21,6,A8,a,a,True,1441,3,15103,trainPhase
22,6,B5,b,b,True,1184,3,15103,trainPhase
23,6,B1,b,a,False,1065,3,15103,trainPhase
0,7,B0,b,b,True,1373,3,15103,trainPhase
1,7,A0,a,a,True,722,3,15103,trainPhase
2,7,A1,a,a,True,705,3,15103,trainPhase
3,7,A3,a,a,True,885,3,15103,trainPhase
4,7,B4,b,b,True,806,3,15103,trainPhase
5,7,B1,b,a,False,952,3,15103,trainPhase
6,7,B3,b,b,True,1548,3,15103,trainPhase
7,7,A7,a,a,True,628,3,15103,trainPhase
8,7,A8,a,a,True,734,3,15103,trainPhase
9,7,B7,b,a,False,909,3,15103,trainPhase
10,7,B5,b,b,True,899,3,15103,trainPhase
11,7,A10,a,a,True,845,3,15103,trainPhase
12,7,A6,a,a,True,831,3,15103,trainPhase
13,7,A11,a,a,True,3610,3,15103,trainPhase
14,7,A2,a,a,True,1208,3,15103,trainPhase
15,7,B10,b,b,True,877,3,15103,trainPhase
16,7,B9,b,a,False,760,3,15103,trainPhase
17,7,A4,a,b,False,749,3,15103,trainPhase
18,7,B2,b,b,True,1470,3,15103,trainPhase
19,7,B8,b,a,False,902,3,15103,trainPhase
20,7,B6,b,a,False,968,3,15103,trainPhase
21,7,A5,a,b,False,1095,3,15103,trainPhase
22,7,B11,b,b,True,1230,3,15103,trainPhase
23,7,A9,a,a,True,817,3,15103,trainPhase
0,8,B1,b,a,False,2853,3,15103,trainPhase
1,8,A7,a,a,True,761,3,15103,trainPhase
2,8,B0,b,a,False,866,3,15103,trainPhase
3,8,A3,a,a,True,719,3,15103,trainPhase
4,8,B6,b,a,False,10701,3,15103,trainPhase
5,8,B10,b,b,True,1751,3,15103,trainPhase
6,8,B8,b,b,True,5714,3,15103,trainPhase
7,8,B2,b,b,True,989,3,15103,trainPhase
8,8,B11,b,b,True,1159,3,15103,trainPhase
9,8,A10,a,a,True,7852,3,15103,trainPhase
10,8,A5,a,a,True,837,3,15103,trainPhase
11,8,A4,a,a,True,745,3,15103,trainPhase
12,8,B7,b,a,False,713,3,15103,trainPhase
13,8,A0,a,a,True,734,3,15103,trainPhase
14,8,A11,a,a,True,1299,3,15103,trainPhase
15,8,A2,a,a,True,6799,3,15103,trainPhase
16,8,A6,a,a,True,675,3,15103,trainPhase
17,8,B5,b,b,True,859,3,15103,trainPhase
18,8,B9,b,b,True,869,3,15103,trainPhase
19,8,A1,a,a,True,760,3,15103,trainPhase
20,8,B4,b,b,True,863,3,15103,trainPhase
21,8,A8,a,a,True,795,3,15103,trainPhase
22,8,A9,a,a,True,1004,3,15103,trainPhase
23,8,B3,b,a,False,993,3,15103,trainPhase
0,9,A10,a,a,True,1075,3,15103,trainPhase
1,9,A5,a,a,True,833,3,15103,trainPhase
2,9,B10,b,b,True,847,3,15103,trainPhase
3,9,B3,b,b,True,757,3,15103,trainPhase
4,9,A0,a,a,True,776,3,15103,trainPhase
5,9,B5,b,b,True,854,3,15103,trainPhase
6,9,B11,b,b,True,1256,3,15103,trainPhase
7,9,A7,a,a,True,3048,3,15103,trainPhase
8,9,A1,a,a,True,719,3,15103,trainPhase
9,9,A9,a,a,True,960,3,15103,trainPhase
10,9,A8,a,a,True,746,3,15103,trainPhase
11,9,B9,b,b,True,1015,3,15103,trainPhase
12,9,B4,b,b,True,828,3,15103,trainPhase
13,9,A6,a,a,True,707,3,15103,trainPhase
14,9,A3,a,a,True,1152,3,15103,trainPhase
15,9,B2,b,a,False,1226,3,15103,trainPhase
16,9,B1,b,b,True,771,3,15103,trainPhase
17,9,B0,b,a,False,1024,3,15103,trainPhase
18,9,B6,b,b,True,927,3,15103,trainPhase
19,9,A4,a,b,False,697,3,15103,trainPhase
20,9,A2,a,a,True,708,3,15103,trainPhase
21,9,B7,b,b,True,816,3,15103,trainPhase
22,9,B8,b,b,True,947,3,15103,trainPhase
23,9,A11,a,b,False,848,3,15103,trainPhase
0,10,A0,a,a,True,1262,3,15103,trainPhase
1,10,B5,b,b,True,792,3,15103,trainPhase
2,10,A2,a,a,True,729,3,15103,trainPhase
3,10,A11,a,a,True,876,3,15103,trainPhase
4,10,B7,b,b,True,870,3,15103,trainPhase
5,10,B2,b,a,False,807,3,15103,trainPhase
6,10,B3,b,b,True,743,3,15103,trainPhase
7,10,B10,b,b,True,1550,3,15103,trainPhase
8,10,B6,b,a,False,1047,3,15103,trainPhase
9,10,A7,a,a,True,750,3,15103,trainPhase
10,10,A5,a,b,False,896,3,15103,trainPhase
11,10,A4,a,a,True,876,3,15103,trainPhase
12,10,A9,a,a,True,952,3,15103,trainPhase
13,10,A6,a,a,True,1494,3,15103,trainPhase
14,10,B8,b,a,False,783,3,15103,trainPhase
15,10,B4,b,b,True,776,3,15103,trainPhase
16,10,A8,a,a,True,887,3,15103,trainPhase
17,10,B9,b,b,True,1114,3,15103,trainPhase
18,10,A1,a,a,True,920,3,15103,trainPhase
19,10,B0,b,b,True,899,3,15103,trainPhase
20,10,B1,b,b,True,775,3,15103,trainPhase
21,10,A3,a,a,True,778,3,15103,trainPhase
22,10,A10,a,a,True,813,3,15103,trainPhase
23,10,B11,b,b,True,859,3,15103,trainPhase
0,11,B5,b,b,True,811,3,15103,trainPhase
1,11,B10,b,b,True,754,3,15103,trainPhase
2,11,A0,a,a,True,792,3,15103,trainPhase
3,11,A10,a,a,True,818,3,15103,trainPhase
4,11,A11,a,a,True,742,3,15103,trainPhase
5,11,B8,b,b,True,914,3,15103,trainPhase
6,11,B9,b,b,True,724,3,15103,trainPhase
0,0,A8,a,b,False,2965,3,15108,trainPhase
1,0,B9,b,b,True,1411,3,15108,trainPhase
2,0,B11,b,b,True,2534,3,15108,trainPhase
3,0,B10,b,b,True,1512,3,15108,trainPhase
4,0,B7,b,a,False,1583,3,15108,trainPhase
5,0,A3,a,a,True,3053,3,15108,trainPhase
6,0,B5,b,b,True,1259,3,15108,trainPhase
7,0,A0,a,a,True,1743,3,15108,trainPhase
8,0,B0,b,b,True,1813,3,15108,trainPhase
9,0,B2,b,b,True,2448,3,15108,trainPhase
10,0,B6,b,a,False,1414,3,15108,trainPhase
11,0,A11,a,a,True,2988,3,15108,trainPhase
12,0,A7,a,a,True,1590,3,15108,trainPhase
13,0,A10,a,b,False,2016,3,15108,trainPhase
14,0,A2,a,a,True,1588,3,15108,trainPhase
15,0,A4,a,b,False,1271,3,15108,trainPhase
16,0,B3,b,b,True,5233,3,15108,trainPhase
17,0,B8,b,b,True,1023,3,15108,trainPhase
18,0,B4,b,a,False,1055,3,15108,trainPhase
19,0,A6,a,b,False,1072,3,15108,trainPhase
20,0,A1,a,a,True,986,3,15108,trainPhase
21,0,B1,b,a,False,911,3,15108,trainPhase
22,0,A5,a,b,False,662,3,15108,trainPhase
23,0,A9,a,a,True,1130,3,15108,trainPhase
0,1,B11,b,a,False,962,3,15108,trainPhase
1,1,B1,b,b,True,1382,3,15108,trainPhase
2,1,A1,a,a,True,1382,3,15108,trainPhase
3,1,B8,b,b,True,1809,3,15108,trainPhase
4,1,A3,a,b,False,1759,3,15108,trainPhase
5,1,A8,a,a,True,558,3,15108,trainPhase
6,1,A7,a,b,False,583,3,15108,trainPhase
7,1,B10,b,a,False,575,3,15108,trainPhase
8,1,B5,b,a,False,1062,3,15108,trainPhase
9,1,B6,b,b,True,589,3,15108,trainPhase
10,1,A9,a,b,False,493,3,15108,trainPhase
11,1,A0,a,a,True,554,3,15108,trainPhase
12,1,B9,b,a,False,950,3,15108,trainPhase
13,1,A10,a,b,False,1061,3,15108,trainPhase
14,1,B7,b,a,False,396,3,15108,trainPhase
15,1,A6,a,b,False,645,3,15108,trainPhase
16,1,A2,a,a,True,1235,3,15108,trainPhase
17,1,B4,b,b,True,2004,3,15108,trainPhase
18,1,A5,a,a,True,1213,3,15108,trainPhase
19,1,B3,b,a,False,1246,3,15108,trainPhase
20,1,B0,b,b,True,1335,3,15108,trainPhase
21,1,A11,a,b,False,790,3,15108,trainPhase
22,1,B2,b,b,True,2629,3,15108,trainPhase
23,1,A4,a,b,False,1668,3,15108,trainPhase
0,2,A7,a,a,True,373,3,15108,trainPhase
1,2,B11,b,a,False,983,3,15108,trainPhase
2,2,B8,b,b,True,454,3,15108,trainPhase
3,2,B2,b,b,True,2115,3,15108,trainPhase
4,2,B5,b,b,True,1217,3,15108,trainPhase
5,2,B0,b,a,False,926,3,15108,trainPhase
6,2,A11,a,b,False,1860,3,15108,trainPhase
7,2,B10,b,a,False,429,3,15108,trainPhase
8,2,A1,a,b,False,710,3,15108,trainPhase
9,2,A4,a,a,True,1576,3,15108,trainPhase
10,2,B3,b,b,True,870,3,15108,trainPhase
11,2,A0,a,a,True,1079,3,15108,trainPhase
12,2,B4,b,b,True,1233,3,15108,trainPhase
13,2,B6,b,b,True,1743,3,15108,trainPhase
14,2,A6,a,a,True,1133,3,15108,trainPhase
15,2,A5,a,b,False,748,3,15108,trainPhase
16,2,B7,b,b,True,1605,3,15108,trainPhase
17,2,A8,a,a,True,1566,3,15108,trainPhase
18,2,A3,a,a,True,852,3,15108,trainPhase
19,2,A10,a,a,True,852,3,15108,trainPhase
20,2,B1,b,a,False,767,3,15108,trainPhase
21,2,A9,a,b,False,845,3,15108,trainPhase
22,2,A2,a,a,True,1382,3,15108,trainPhase
23,2,B9,b,b,True,1079,3,15108,trainPhase
0,3,A2,a,a,True,965,3,15108,trainPhase
1,3,A10,a,b,False,949,3,15108,trainPhase
2,3,B6,b,b,True,916,3,15108,trainPhase
3,3,B10,b,a,False,1268,3,15108,trainPhase
4,3,A5,a,b,False,914,3,15108,trainPhase
5,3,B7,b,a,False,1210,3,15108,trainPhase
6,3,A7,a,a,True,612,3,15108,trainPhase
7,3,B3,b,b,True,916,3,15108,trainPhase
8,3,B8,b,a,False,1392,3,15108,trainPhase
9,3,A3,a,b,False,830,3,15108,trainPhase
10,3,A4,a,a,True,526,3,15108,trainPhase
11,3,A6,a,a,True,955,3,15108,trainPhase
12,3,B1,b,a,False,610,3,15108,trainPhase
13,3,A1,a,a,True,582,3,15108,trainPhase
14,3,B4,b,b,True,1314,3,15108,trainPhase
15,3,A8,a,a,True,542,3,15108,trainPhase
16,3,B9,b,a,False,525,3,15108,trainPhase
17,3,A0,a,b,False,694,3,15108,trainPhase
18,3,B2,b,a,False,518,3,15108,trainPhase
19,3,A11,a,b,False,2658,3,15108,trainPhase
20,3,B0,b,a,False,1116,3,15108,trainPhase
21,3,B11,b,b,True,2019,3,15108,trainPhase
22,3,A9,a,a,True,1307,3,15108,trainPhase
23,3,B5,b,b,True,1270,3,15108,trainPhase
0,4,B4,b,b,True,510,3,15108,trainPhase
1,4,A0,a,a,True,2189,3,15108,trainPhase
2,4,A6,a,a,True,1167,3,15108,trainPhase
3,4,B5,b,b,True,1821,3,15108,trainPhase
4,4,B3,b,b,True,996,3,15108,trainPhase
5,4,A2,a,a,True,1180,3,15108,trainPhase
6,4,A4,a,a,True,1329,3,15108,trainPhase
7,4,B8,b,a,False,1145,3,15108,trainPhase
8,4,A7,a,a,True,1041,3,15108,trainPhase
9,4,B9,b,a,False,1143,3,15108,trainPhase
10,4,A9,a,b,False,949,3,15108,trainPhase
11,4,B2,b,b,True,501,3,15108,trainPhase
12,4,B10,b,b,True,2811,3,15108,trainPhase
13,4,A11,a,b,False,965,3,15108,trainPhase
14,4,B7,b,a,False,1262,3,15108,trainPhase
15,4,B0,b,b,True,1045,3,15108,trainPhase
16,4,A10,a,b,False,670,3,15108,trainPhase
17,4,A8,a,a,True,1100,3,15108,trainPhase
18,4,B6,b,a,False,1645,3,15108,trainPhase
19,4,B11,b,b,True,566,3,15108,trainPhase
20,4,A1,a,a,True,985,3,15108,trainPhase
21,4,A5,a,b,False,2600,3,15108,trainPhase
22,4,A3,a,a,True,1169,3,15108,trainPhase
23,4,B1,b,a,False,933,3,15108,trainPhase
0,5,A2,a,a,True,975,3,15108,trainPhase
1,5,A4,a,a,True,1417,3,15108,trainPhase
2,5,B11,b,b,True,1074,3,15108,trainPhase
3,5,A5,a,a,True,1091,3,15108,trainPhase
4,5,B6,b,a,False,1748,3,15108,trainPhase
5,5,B3,b,b,True,1004,3,15108,trainPhase
6,5,A6,a,a,True,1086,3,15108,trainPhase
7,5,B10,b,a,False,1194,3,15108,trainPhase
8,5,B5,b,b,True,493,3,15108,trainPhase
9,5,A11,a,b,False,1174,3,15108,trainPhase
10,5,B4,b,a,False,384,3,15108,trainPhase
11,5,B9,b,b,True,422,3,15108,trainPhase
12,5,A7,a,b,False,557,3,15108,trainPhase
13,5,A9,a,a,True,638,3,15108,trainPhase
14,5,B8,b,b,True,437,3,15108,trainPhase
15,5,B1,b,a,False,485,3,15108,trainPhase
16,5,A3,a,b,False,541,3,15108,trainPhase
17,5,B2,b,a,False,854,3,15108,trainPhase
18,5,A8,a,a,True,538,3,15108,trainPhase
19,5,A0,a,a,True,422,3,15108,trainPhase
20,5,A1,a,a,True,390,3,15108,trainPhase
21,5,B7,b,a,False,862,3,15108,trainPhase
22,5,A10,a,b,False,487,3,15108,trainPhase
23,5,B0,b,b,True,654,3,15108,trainPhase
0,6,A3,a,b,False,550,3,15108,trainPhase
1,6,B2,b,a,False,438,3,15108,trainPhase
2,6,A4,a,b,False,1091,3,15108,trainPhase
3,6,B11,b,a,False,415,3,15108,trainPhase
4,6,B9,b,b,True,2273,3,15108,trainPhase
5,6,A6,a,a,True,955,3,15108,trainPhase
6,6,A5,a,b,False,1149,3,15108,trainPhase
7,6,A1,a,a,True,566,3,15108,trainPhase
8,6,B8,b,b,True,1165,3,15108,trainPhase
9,6,B10,b,a,False,770,3,15108,trainPhase
10,6,A9,a,b,False,1840,3,15108,trainPhase
11,6,B0,b,b,True,1406,3,15108,trainPhase
12,6,B1,b,b,True,1218,3,15108,trainPhase
13,6,A8,a,a,True,1301,3,15108,trainPhase
14,6,B3,b,b,True,478,3,15108,trainPhase
15,6,A11,a,a,True,798,3,15108,trainPhase
16,6,A0,a,b,False,519,3,15108,trainPhase
17,6,B6,b,b,True,1547,3,15108,trainPhase
18,6,A7,a,a,True,1086,3,15108,trainPhase
19,6,B7,b,b,True,1096,3,15108,trainPhase
20,6,A10,a,b,False,1286,3,15108,trainPhase
21,6,B5,b,a,False,1525,3,15108,trainPhase
22,6,A2,a,b,False,997,3,15108,trainPhase
23,6,B4,b,a,False,909,3,15108,trainPhase
0,7,B5,b,b,True,982,3,15108,trainPhase
1,7,B4,b,b,True,942,3,15108,trainPhase
2,7,A1,a,a,True,1074,3,15108,trainPhase
3,7,B7,b,a,False,917,3,15108,trainPhase
4,7,B1,b,b,True,1367,3,15108,trainPhase
5,7,A9,a,a,True,423,3,15108,trainPhase
6,7,B8,b,b,True,494,3,15108,trainPhase
7,7,B0,b,a,False,749,3,15108,trainPhase
8,7,B11,b,a,False,832,3,15108,trainPhase
9,7,B10,b,b,True,1178,3,15108,trainPhase
10,7,B6,b,b,True,366,3,15108,trainPhase
11,7,B3,b,b,True,574,3,15108,trainPhase
12,7,A0,a,b,False,661,3,15108,trainPhase
13,7,A4,a,b,False,735,3,15108,trainPhase
14,7,B9,b,a,False,382,3,15108,trainPhase
15,7,A10,a,b,False,510,3,15108,trainPhase
16,7,B2,b,b,True,543,3,15108,trainPhase
17,7,A5,a,b,False,390,3,15108,trainPhase
18,7,A2,a,a,True,420,3,15108,trainPhase
19,7,A7,a,b,False,549,3,15108,trainPhase
20,7,A8,a,a,True,782,3,15108,trainPhase
21,7,A11,a,b,False,1774,3,15108,trainPhase
22,7,A6,a,a,True,445,3,15108,trainPhase
23,7,A3,a,a,True,615,3,15108,trainPhase
0,8,B2,b,a,False,390,3,15108,trainPhase
1,8,B9,b,b,True,526,3,15108,trainPhase
2,8,B8,b,b,True,494,3,15108,trainPhase
3,8,B10,b,b,True,420,3,15108,trainPhase
4,8,B3,b,a,False,805,3,15108,trainPhase
5,8,A5,a,b,False,663,3,15108,trainPhase
6,8,B4,b,b,True,397,3,15108,trainPhase
7,8,A2,a,a,True,382,3,15108,trainPhase
8,8,A6,a,a,True,722,3,15108,trainPhase
9,8,A1,a,a,True,689,3,15108,trainPhase
10,8,B1,b,b,True,1110,3,15108,trainPhase
11,8,A0,a,a,True,574,3,15108,trainPhase
12,8,A11,a,b,False,1070,3,15108,trainPhase
13,8,A7,a,a,True,446,3,15108,trainPhase
14,8,A8,a,a,True,1458,3,15108,trainPhase
15,8,B6,b,a,False,968,3,15108,trainPhase
16,8,A10,a,a,True,622,3,15108,trainPhase
17,8,B7,b,a,False,576,3,15108,trainPhase
18,8,A9,a,b,False,1185,3,15108,trainPhase
19,8,A4,a,a,True,647,3,15108,trainPhase
20,8,A3,a,a,True,975,3,15108,trainPhase
21,8,B11,b,a,False,566,3,15108,trainPhase
22,8,B5,b,b,True,663,3,15108,trainPhase
23,8,B0,b,b,True,534,3,15108,trainPhase
0,9,A10,a,b,False,414,3,15108,trainPhase
1,9,A6,a,a,True,478,3,15108,trainPhase
2,9,B1,b,a,False,638,3,15108,trainPhase
3,9,B3,b,b,True,617,3,15108,trainPhase
4,9,B4,b,b,True,587,3,15108,trainPhase
5,9,A1,a,a,True,1086,3,15108,trainPhase
6,9,B5,b,b,True,869,3,15108,trainPhase
7,9,B11,b,b,True,1037,3,15108,trainPhase
8,9,A7,a,a,True,1900,3,15108,trainPhase
9,9,A4,a,b,False,1317,3,15108,trainPhase
10,9,B7,b,a,False,340,3,15108,trainPhase
11,9,B8,b,b,True,717,3,15108,trainPhase
12,9,B10,b,a,False,1594,3,15108,trainPhase
13,9,B2,b,b,True,494,3,15108,trainPhase
14,9,A3,a,a,True,933,3,15108,trainPhase
15,9,B9,b,b,True,895,3,15108,trainPhase
16,9,B0,b,b,True,1806,3,15108,trainPhase
17,9,A0,a,a,True,1254,3,15108,trainPhase
18,9,A8,a,a,True,984,3,15108,trainPhase
19,9,A2,a,a,True,750,3,15108,trainPhase
20,9,A11,a,b,False,1246,3,15108,trainPhase
21,9,B6,b,b,True,942,3,15108,trainPhase
22,9,A5,a,a,True,720,3,15108,trainPhase
23,9,A9,a,b,False,606,3,15108,trainPhase
0,10,A8,a,a,True,559,3,15108,trainPhase
1,10,B3,b,b,True,1102,3,15108,trainPhase
2,10,A0,a,a,True,710,3,15108,trainPhase
3,10,A9,a,a,True,1302,3,15108,trainPhase
4,10,B5,b,b,True,1327,3,15108,trainPhase
5,10,A11,a,b,False,3269,3,15108,trainPhase
6,10,A1,a,a,True,1037,3,15108,trainPhase
7,10,B10,b,b,True,1454,3,15108,trainPhase
8,10,A7,a,a,True,735,3,15108,trainPhase
9,10,B1,b,a,False,1230,3,15108,trainPhase
10,10,B2,b,b,True,929,3,15108,trainPhase
11,10,A6,a,a,True,1367,3,15108,trainPhase
12,10,B6,b,a,False,527,3,15108,trainPhase
13,10,A4,a,a,True,375,3,15108,trainPhase
14,10,B4,b,a,False,413,3,15108,trainPhase
15,10,A2,a,b,False,607,3,15108,trainPhase
16,10,A5,a,a,True,526,3,15108,trainPhase
17,10,B0,b,b,True,786,3,15108,trainPhase
18,10,A3,a,b,False,485,3,15108,trainPhase
19,10,B11,b,b,True,894,3,15108,trainPhase
20,10,B7,b,a,False,879,3,15108,trainPhase
21,10,B9,b,b,True,685,3,15108,trainPhase
22,10,B8,b,b,True,1111,3,15108,trainPhase
23,10,A10,a,b,False,1029,3,15108,trainPhase
0,11,A10,a,b,False,1519,3,15108,trainPhase
1,11,B11,b,b,True,1322,3,15108,trainPhase
2,11,B4,b,b,True,1085,3,15108,trainPhase
3,11,B1,b,a,False,1300,3,15108,trainPhase
4,11,B0,b,a,False,1421,3,15108,trainPhase
5,11,B9,b,b,True,1180,3,15108,trainPhase
6,11,B6,b,b,True,857,3,15108,trainPhase
7,11,A7,a,a,True,1125,3,15108,trainPhase
8,11,A8,a,a,True,776,3,15108,trainPhase
9,11,A3,a,a,True,613,3,15108,trainPhase
10,11,A9,a,a,True,654,3,15108,trainPhase
11,11,A2,a,a,True,601,3,15108,trainPhase
12,11,A0,a,a,True,824,3,15108,trainPhase
13,11,A5,a,b,False,1678,3,15108,trainPhase
14,11,B2,b,a,False,646,3,15108,trainPhase
15,11,B5,b,b,True,517,3,15108,trainPhase
16,11,A6,a,a,True,1086,3,15108,trainPhase
17,11,A4,a,a,True,757,3,15108,trainPhase
18,11,A1,a,a,True,950,3,15108,trainPhase
19,11,A11,a,a,True,1069,3,15108,trainPhase
20,11,B3,b,b,True,2334,3,15108,trainPhase
21,11,B8,b,b,True,1943,3,15108,trainPhase
22,11,B7,b,a,False,798,3,15108,trainPhase
23,11,B10,b,b,True,1208,3,15108,trainPhase
0,12,B9,b,b,True,1294,3,15108,trainPhase
1,12,B10,b,a,False,1078,3,15108,trainPhase
2,12,B7,b,b,True,1313,3,15108,trainPhase
3,12,A0,a,a,True,1319,3,15108,trainPhase
4,12,A8,a,a,True,814,3,15108,trainPhase
5,12,A2,a,a,True,782,3,15108,trainPhase
6,12,A9,a,a,True,649,3,15108,trainPhase
7,12,B5,b,a,False,910,3,15108,trainPhase
8,12,A5,a,b,False,1160,3,15108,trainPhase
9,12,B8,b,b,True,1222,3,15108,trainPhase
10,12,B4,b,a,False,647,3,15108,trainPhase
11,12,B6,b,a,False,1635,3,15108,trainPhase
12,12,B11,b,b,True,911,3,15108,trainPhase
13,12,A4,a,b,False,772,3,15108,trainPhase
14,12,A11,a,a,True,923,3,15108,trainPhase
15,12,B3,b,b,True,1182,3,15108,trainPhase
16,12,A7,a,a,True,928,3,15108,trainPhase
17,12,A6,a,a,True,876,3,15108,trainPhase
18,12,A1,a,a,True,486,3,15108,trainPhase
19,12,A3,a,a,True,1133,3,15108,trainPhase
20,12,B2,b,b,True,1458,3,15108,trainPhase
21,12,A10,a,b,False,1065,3,15108,trainPhase
22,12,B0,b,b,True,1310,3,15108,trainPhase
23,12,B1,b,b,True,1489,3,15108,trainPhase
0,13,B0,b,b,True,1198,3,15108,trainPhase
1,13,B3,b,b,True,2029,3,15108,trainPhase
2,13,A1,a,a,True,1041,3,15108,trainPhase
3,13,B9,b,b,True,1362,3,15108,trainPhase
4,13,A4,a,b,False,1187,3,15108,trainPhase
5,13,A6,a,a,True,1510,3,15108,trainPhase
6,13,A7,a,a,True,1942,3,15108,trainPhase
7,13,B1,b,b,True,1606,3,15108,trainPhase
8,13,A0,a,a,True,1108,3,15108,trainPhase
9,13,A5,a,b,False,1666,3,15108,trainPhase
10,13,B2,b,b,True,1048,3,15108,trainPhase
11,13,B7,b,b,True,2150,3,15108,trainPhase
12,13,B6,b,a,False,714,3,15108,trainPhase
13,13,A10,a,b,False,738,3,15108,trainPhase
14,13,A9,a,a,True,951,3,15108,trainPhase
15,13,A3,a,a,True,898,3,15108,trainPhase
16,13,B10,b,b,True,1166,3,15108,trainPhase
17,13,B11,b,b,True,1029,3,15108,trainPhase
18,13,B8,b,b,True,1010,3,15108,trainPhase
19,13,B5,b,b,True,1346,3,15108,trainPhase
20,13,B4,b,b,True,750,3,15108,trainPhase
21,13,A2,a,a,True,1053,3,15108,trainPhase
22,13,A8,a,a,True,2390,3,15108,trainPhase
23,13,A11,a,b,False,1446,3,15108,trainPhase
0,14,A1,a,a,True,686,3,15108,trainPhase
1,14,B7,b,b,True,1430,3,15108,trainPhase
2,14,A2,a,a,True,470,3,15108,trainPhase
3,14,A0,a,a,True,1006,3,15108,trainPhase
4,14,A6,a,a,True,1110,3,15108,trainPhase
5,14,B8,b,b,True,1124,3,15108,trainPhase
6,14,B11,b,b,True,739,3,15108,trainPhase
7,14,A10,a,b,False,1167,3,15108,trainPhase
8,14,B10,b,b,True,1386,3,15108,trainPhase
9,14,A7,a,a,True,660,3,15108,trainPhase
10,14,B9,b,b,True,925,3,15108,trainPhase
11,14,B3,b,b,True,1150,3,15108,trainPhase
12,14,B2,b,b,True,765,3,15108,trainPhase
13,14,B6,b,b,True,2950,3,15108,trainPhase
14,14,A8,a,a,True,738,3,15108,trainPhase
15,14,A9,a,a,True,1132,3,15108,trainPhase
16,14,B1,b,b,True,1328,3,15108,trainPhase
17,14,A11,a,b,False,882,3,15108,trainPhase
18,14,A5,a,b,False,1055,3,15108,trainPhase
19,14,B4,b,b,True,1281,3,15108,trainPhase
20,14,B0,b,a,False,783,3,15108,trainPhase
21,14,A3,a,b,False,390,3,15108,trainPhase
22,14,A4,a,a,True,1054,3,15108,trainPhase
23,14,B5,b,b,True,3474,3,15108,trainPhase
0,0,B2,b,a,False,3018,3,15113,trainPhase
1,0,A0,a,a,True,2109,3,15113,trainPhase
2,0,A2,a,a,True,1781,3,15113,trainPhase
3,0,B1,b,a,False,1770,3,15113,trainPhase
4,0,A7,a,a,True,982,3,15113,trainPhase
5,0,B7,b,b,True,869,3,15113,trainPhase
6,0,A6,a,a,True,914,3,15113,trainPhase
7,0,B5,b,b,True,905,3,15113,trainPhase
8,0,A5,a,b,False,1795,3,15113,trainPhase
9,0,B8,b,b,True,2813,3,15113,trainPhase
10,0,A10,a,a,True,1557,3,15113,trainPhase
11,0,A11,a,a,True,1174,3,15113,trainPhase
12,0,B0,b,a,False,945,3,15113,trainPhase
13,0,A8,a,a,True,1400,3,15113,trainPhase
14,0,B10,b,b,True,1201,3,15113,trainPhase
15,0,A3,a,a,True,1106,3,15113,trainPhase
16,0,B3,b,b,True,1182,3,15113,trainPhase
17,0,B6,b,a,False,996,3,15113,trainPhase
18,0,B4,b,b,True,1830,3,15113,trainPhase
19,0,A4,a,a,True,750,3,15113,trainPhase
20,0,A9,a,b,False,1086,3,15113,trainPhase
21,0,B11,b,b,True,1333,3,15113,trainPhase
22,0,B9,b,b,True,2133,3,15113,trainPhase
23,0,A1,a,a,True,966,3,15113,trainPhase
0,1,A2,a,a,True,797,3,15113,trainPhase
1,1,B3,b,b,True,1892,3,15113,trainPhase
2,1,B10,b,b,True,1182,3,15113,trainPhase
3,1,B9,b,b,True,1034,3,15113,trainPhase
4,1,A6,a,a,True,1470,3,15113,trainPhase
5,1,A7,a,a,True,1027,3,15113,trainPhase
6,1,A4,a,a,True,3986,3,15113,trainPhase
7,1,A9,a,b,False,2133,3,15113,trainPhase
8,1,A5,a,a,True,4697,3,15113,trainPhase
9,1,A8,a,b,False,3838,3,15113,trainPhase
10,1,A10,a,a,True,1094,3,15113,trainPhase
11,1,A0,a,a,True,669,3,15113,trainPhase
12,1,B6,b,b,True,1149,3,15113,trainPhase
13,1,B1,b,b,True,5830,3,15113,trainPhase
14,1,A3,a,a,True,1117,3,15113,trainPhase
15,1,B0,b,a,False,767,3,15113,trainPhase
16,1,B4,b,b,True,1364,3,15113,trainPhase
17,1,B11,b,b,True,1076,3,15113,trainPhase
18,1,B8,b,b,True,1597,3,15113,trainPhase
19,1,B5,b,b,True,941,3,15113,trainPhase
20,1,B7,b,b,True,1302,3,15113,trainPhase
21,1,A1,a,a,True,854,3,15113,trainPhase
22,1,B2,b,b,True,1243,3,15113,trainPhase
23,1,A11,a,b,False,722,3,15113,trainPhase
0,2,B9,b,b,True,1248,3,15113,trainPhase
1,2,A11,a,a,True,1029,3,15113,trainPhase
2,2,A7,a,a,True,1238,3,15113,trainPhase
3,2,B5,b,b,True,1118,3,15113,trainPhase
4,2,B0,b,b,True,1742,3,15113,trainPhase
5,2,B4,b,b,True,1389,3,15113,trainPhase
6,2,B6,b,b,True,877,3,15113,trainPhase
7,2,A6,a,a,True,1254,3,15113,trainPhase
8,2,B1,b,b,True,2982,3,15113,trainPhase
9,2,A0,a,a,True,946,3,15113,trainPhase
10,2,A4,a,b,False,2380,3,15113,trainPhase
11,2,B11,b,b,True,1166,3,15113,trainPhase
12,2,A2,a,a,True,1254,3,15113,trainPhase
13,2,B8,b,b,True,1518,3,15113,trainPhase
14,2,A9,a,b,False,1207,3,15113,trainPhase
15,2,A3,a,b,False,3094,3,15113,trainPhase
16,2,B3,b,b,True,1070,3,15113,trainPhase
17,2,B7,b,b,True,1414,3,15113,trainPhase
18,2,B2,b,b,True,1150,3,15113,trainPhase
19,2,A10,a,b,False,1598,3,15113,trainPhase
20,2,A5,a,b,False,2763,3,15113,trainPhase
21,2,A1,a,a,True,1359,3,15113,trainPhase
22,2,B10,b,b,True,880,3,15113,trainPhase
23,2,A8,a,a,True,1215,3,15113,trainPhase
0,3,B9,b,b,True,1362,3,15113,trainPhase
1,3,B4,b,b,True,1111,3,15113,trainPhase
2,3,A4,a,a,True,2798,3,15113,trainPhase
3,3,A5,a,b,False,2616,3,15113,trainPhase
4,3,B11,b,b,True,1189,3,15113,trainPhase
5,3,A1,a,a,True,877,3,15113,trainPhase
6,3,A9,a,b,False,2712,3,15113,trainPhase
7,3,A6,a,a,True,949,3,15113,trainPhase
8,3,B2,b,b,True,1165,3,15113,trainPhase
9,3,A3,a,a,True,781,3,15113,trainPhase
10,3,B3,b,b,True,972,3,15113,trainPhase
11,3,B6,b,b,True,3333,3,15113,trainPhase
12,3,B0,b,a,False,3157,3,15113,trainPhase
13,3,A7,a,a,True,781,3,15113,trainPhase
14,3,A0,a,a,True,883,3,15113,trainPhase
15,3,B10,b,b,True,1319,3,15113,trainPhase
16,3,A11,a,a,True,1020,3,15113,trainPhase
17,3,A10,a,a,True,2150,3,15113,trainPhase
18,3,B5,b,b,True,765,3,15113,trainPhase
19,3,B8,b,b,True,2004,3,15113,trainPhase
20,3,B7,b,b,True,3029,3,15113,trainPhase
21,3,B1,b,a,False,1047,3,15113,trainPhase
22,3,A2,a,a,True,886,3,15113,trainPhase
23,3,A8,a,a,True,1598,3,15113,trainPhase
0,4,B3,b,b,True,1134,3,15113,trainPhase
1,4,A9,a,a,True,1750,3,15113,trainPhase
2,4,B2,b,b,True,1398,3,15113,trainPhase
3,4,B7,b,b,True,3945,3,15113,trainPhase
4,4,A11,a,a,True,1014,3,15113,trainPhase
5,4,A2,a,a,True,965,3,15113,trainPhase
6,4,A1,a,a,True,788,3,15113,trainPhase
7,4,A8,a,a,True,886,3,15113,trainPhase
8,4,B1,b,b,True,2365,3,15113,trainPhase
9,4,B6,b,b,True,1786,3,15113,trainPhase
10,4,B4,b,b,True,1262,3,15113,trainPhase
11,4,B9,b,b,True,1358,3,15113,trainPhase
12,4,B8,b,b,True,1958,3,15113,trainPhase
13,4,A0,a,a,True,798,3,15113,trainPhase
0,0,A4,a,b,False,2402,3,15118,trainPhase
1,0,B11,b,b,True,1882,3,15118,trainPhase
2,0,A6,a,a,True,1009,3,15118,trainPhase
3,0,A0,a,a,True,778,3,15118,trainPhase
4,0,A9,a,a,True,1868,3,15118,trainPhase
5,0,B3,b,b,True,1126,3,15118,trainPhase
6,0,B6,b,a,False,766,3,15118,trainPhase
7,0,B2,b,b,True,1527,3,15118,trainPhase
8,0,B1,b,b,True,3514,3,15118,trainPhase
9,0,A11,a,b,False,1251,3,15118,trainPhase
10,0,B0,b,b,True,1487,3,15118,trainPhase
11,0,A5,a,b,False,902,3,15118,trainPhase
12,0,B5,b,a,False,2299,3,15118,trainPhase
13,0,A10,a,a,True,2391,3,15118,trainPhase
14,0,A8,a,b,False,5391,3,15118,trainPhase
15,0,A3,a,a,True,1269,3,15118,trainPhase
16,0,A7,a,a,True,1667,3,15118,trainPhase
17,0,B7,b,b,True,2552,3,15118,trainPhase
18,0,A1,a,a,True,1395,3,15118,trainPhase
19,0,B10,b,b,True,1295,3,15118,trainPhase
20,0,B9,b,b,True,1838,3,15118,trainPhase
21,0,B4,b,b,True,2299,3,15118,trainPhase
22,0,B8,b,b,True,7371,3,15118,trainPhase
23,0,A2,a,a,True,1142,3,15118,trainPhase
0,1,A4,a,b,False,5662,3,15118,trainPhase
1,1,B11,b,b,True,1136,3,15118,trainPhase
2,1,A2,a,a,True,991,3,15118,trainPhase
3,1,B10,b,b,True,854,3,15118,trainPhase
4,1,A3,a,a,True,1430,3,15118,trainPhase
5,1,A5,a,a,True,2369,3,15118,trainPhase
6,1,A8,a,a,True,950,3,15118,trainPhase
7,1,A7,a,a,True,779,3,15118,trainPhase
8,1,B8,b,b,True,922,3,15118,trainPhase
9,1,A9,a,a,True,1174,3,15118,trainPhase
10,1,B6,b,a,False,3431,3,15118,trainPhase
11,1,B0,b,a,False,4129,3,15118,trainPhase
12,1,B4,b,b,True,1791,3,15118,trainPhase
13,1,B2,b,b,True,1412,3,15118,trainPhase
14,1,B7,b,b,True,2976,3,15118,trainPhase
15,1,A10,a,a,True,5246,3,15118,trainPhase
16,1,B3,b,b,True,812,3,15118,trainPhase
17,1,B9,b,b,True,1317,3,15118,trainPhase
18,1,B5,b,b,True,1204,3,15118,trainPhase
19,1,A0,a,a,True,1219,3,15118,trainPhase
20,1,B1,b,b,True,2739,3,15118,trainPhase
21,1,A1,a,a,True,1064,3,15118,trainPhase
22,1,A6,a,a,True,1577,3,15118,trainPhase
23,1,A11,a,b,False,2346,3,15118,trainPhase
0,2,B0,b,a,False,1044,3,15118,trainPhase
1,2,B8,b,b,True,1691,3,15118,trainPhase
2,2,A8,a,a,True,1133,3,15118,trainPhase
3,2,A9,a,a,True,1793,3,15118,trainPhase
4,2,B7,b,b,True,3336,3,15118,trainPhase
5,2,A3,a,a,True,1684,3,15118,trainPhase
6,2,B2,b,b,True,1130,3,15118,trainPhase
7,2,B6,b,a,False,1595,3,15118,trainPhase
8,2,A4,a,a,True,1182,3,15118,trainPhase
9,2,B11,b,b,True,2128,3,15118,trainPhase
10,2,A2,a,a,True,1245,3,15118,trainPhase
11,2,B4,b,b,True,1987,3,15118,trainPhase
12,2,B10,b,b,True,1222,3,15118,trainPhase
13,2,A1,a,a,True,1108,3,15118,trainPhase
14,2,A0,a,a,True,917,3,15118,trainPhase
15,2,B9,b,b,True,1111,3,15118,trainPhase
16,2,B5,b,b,True,2216,3,15118,trainPhase
17,2,A5,a,b,False,1582,3,15118,trainPhase
18,2,A6,a,a,True,917,3,15118,trainPhase
19,2,A11,a,a,True,1546,3,15118,trainPhase
20,2,B1,b,a,False,1772,3,15118,trainPhase
21,2,A10,a,a,True,1255,3,15118,trainPhase
22,2,B3,b,b,True,1007,3,15118,trainPhase
23,2,A7,a,a,True,1638,3,15118,trainPhase
0,3,A8,a,a,True,931,3,15118,trainPhase
1,3,B4,b,b,True,1061,3,15118,trainPhase
2,3,B2,b,b,True,1018,3,15118,trainPhase
3,3,A3,a,a,True,1017,3,15118,trainPhase
4,3,A2,a,a,True,1226,3,15118,trainPhase
5,3,A4,a,a,True,1348,3,15118,trainPhase
6,3,B6,b,a,False,2554,3,15118,trainPhase
7,3,B7,b,b,True,1678,3,15118,trainPhase
8,3,B10,b,b,True,1218,3,15118,trainPhase
9,3,A11,a,a,True,2368,3,15118,trainPhase
10,3,B0,b,a,False,1546,3,15118,trainPhase
11,3,A5,a,a,True,4361,3,15118,trainPhase
12,3,A9,a,a,True,2863,3,15118,trainPhase
13,3,B1,b,b,True,1319,3,15118,trainPhase
14,3,A10,a,a,True,1597,3,15118,trainPhase
15,3,A0,a,a,True,906,3,15118,trainPhase
16,3,B9,b,b,True,1135,3,15118,trainPhase
17,3,B11,b,b,True,877,3,15118,trainPhase
18,3,A6,a,a,True,1343,3,15118,trainPhase
19,3,B3,b,b,True,1908,3,15118,trainPhase
20,3,B8,b,b,True,4075,3,15118,trainPhase
21,3,A7,a,a,True,1269,3,15118,trainPhase
22,3,A1,a,a,True,1423,3,15118,trainPhase
23,3,B5,b,b,True,2323,3,15118,trainPhase
0,4,B9,b,b,True,2441,3,15118,trainPhase
1,4,A1,a,a,True,1052,3,15118,trainPhase
2,4,B5,b,b,True,1640,3,15118,trainPhase
0,0,A8,a,a,True,3467,3,15123,trainPhase
1,0,A5,a,b,False,1877,3,15123,trainPhase
2,0,B5,b,a,False,1407,3,15123,trainPhase
3,0,B6,b,a,False,1576,3,15123,trainPhase
4,0,A6,a,a,True,2866,3,15123,trainPhase
5,0,A4,a,a,True,1791,3,15123,trainPhase
6,0,B3,b,b,True,1133,3,15123,trainPhase
7,0,A0,a,b,False,1659,3,15123,trainPhase
8,0,B10,b,b,True,1169,3,15123,trainPhase
9,0,B1,b,a,False,1519,3,15123,trainPhase
10,0,B8,b,a,False,848,3,15123,trainPhase
11,0,A2,a,a,True,1577,3,15123,trainPhase
12,0,B9,b,b,True,1164,3,15123,trainPhase
13,0,B4,b,b,True,1104,3,15123,trainPhase
14,0,A7,a,a,True,1671,3,15123,trainPhase
15,0,B7,b,a,False,1225,3,15123,trainPhase
16,0,A11,a,a,True,1300,3,15123,trainPhase
17,0,A10,a,a,True,1365,3,15123,trainPhase
18,0,A1,a,a,True,911,3,15123,trainPhase
19,0,B11,b,b,True,1227,3,15123,trainPhase
20,0,B0,b,b,True,914,3,15123,trainPhase
21,0,A9,a,a,True,1755,3,15123,trainPhase
22,0,A3,a,a,True,1272,3,15123,trainPhase
23,0,B2,b,b,True,1202,3,15123,trainPhase
0,1,A0,a,a,True,1345,3,15123,trainPhase
1,1,A4,a,a,True,2247,3,15123,trainPhase
2,1,B8,b,b,True,1190,3,15123,trainPhase
3,1,B6,b,b,True,2861,3,15123,trainPhase
4,1,B10,b,b,True,1247,3,15123,trainPhase
5,1,A5,a,a,True,3998,3,15123,trainPhase
6,1,B4,b,b,True,1793,3,15123,trainPhase
7,1,A3,a,a,True,1323,3,15123,trainPhase
0,0,A5,a,b,False,3998,3,15128,trainPhase
1,0,B0,b,a,False,2701,3,15128,trainPhase
2,0,A2,a,a,True,2113,3,15128,trainPhase
3,0,B9,b,b,True,1441,3,15128,trainPhase
4,0,B11,b,b,True,1791,3,15128,trainPhase
5,0,A11,a,a,True,1821,3,15128,trainPhase
6,0,B8,b,b,True,1150,3,15128,trainPhase
7,0,A6,a,a,True,3392,3,15128,trainPhase
8,0,B2,b,b,True,1185,3,15128,trainPhase
9,0,A7,a,a,True,3487,3,15128,trainPhase
10,0,A9,a,a,True,2299,3,15128,trainPhase
11,0,B3,b,b,True,1279,3,15128,trainPhase
12,0,B4,b,a,False,1279,3,15128,trainPhase
13,0,A3,a,a,True,1119,3,15128,trainPhase
14,0,A1,a,a,True,1034,3,15128,trainPhase
15,0,A10,a,b,False,1333,3,15128,trainPhase
16,0,A4,a,a,True,1614,3,15128,trainPhase
17,0,B1,b,b,True,1768,3,15128,trainPhase
18,0,B7,b,b,True,1041,3,15128,trainPhase
19,0,B6,b,b,True,952,3,15128,trainPhase
20,0,A8,a,a,True,1223,3,15128,trainPhase
21,0,B5,b,b,True,1173,3,15128,trainPhase
22,0,B10,b,b,True,1086,3,15128,trainPhase
23,0,A0,a,a,True,1252,3,15128,trainPhase
0,1,B1,b,b,True,1223,3,15128,trainPhase
1,1,A5,a,a,True,1251,3,15128,trainPhase
2,1,A8,a,b,False,1214,3,15128,trainPhase
3,1,A1,a,a,True,1220,3,15128,trainPhase
4,1,A9,a,a,True,1076,3,15128,trainPhase
5,1,B11,b,b,True,909,3,15128,trainPhase
6,1,B3,b,b,True,1056,3,15128,trainPhase
7,1,A3,a,a,True,972,3,15128,trainPhase
8,1,B10,b,b,True,798,3,15128,trainPhase
9,1,A7,a,a,True,1676,3,15128,trainPhase
10,1,A10,a,b,False,841,3,15128,trainPhase
11,1,B0,b,a,False,1536,3,15128,trainPhase
12,1,A11,a,a,True,1238,3,15128,trainPhase
13,1,A6,a,a,True,1382,3,15128,trainPhase
14,1,A2,a,a,True,1440,3,15128,trainPhase
15,1,B4,b,b,True,958,3,15128,trainPhase
16,1,B7,b,b,True,849,3,15128,trainPhase
17,1,A0,a,a,True,1735,3,15128,trainPhase
18,1,B5,b,b,True,1091,3,15128,trainPhase
19,1,B9,b,b,True,1100,3,15128,trainPhase
20,1,B8,b,b,True,2514,3,15128,trainPhase
21,1,B6,b,b,True,828,3,15128,trainPhase
22,1,B2,b,b,True,805,3,15128,trainPhase
23,1,A4,a,a,True,889,3,15128,trainPhase
0,2,A0,a,a,True,1376,3,15128,trainPhase
1,2,A9,a,a,True,1348,3,15128,trainPhase
2,2,B8,b,b,True,998,3,15128,trainPhase
3,2,A7,a,a,True,915,3,15128,trainPhase
0,0,B9,b,b,True,4697,3,15133,trainPhase
1,0,B10,b,b,True,2831,3,15133,trainPhase
2,0,B3,b,a,False,4678,3,15133,trainPhase
3,0,B1,b,b,True,1721,3,15133,trainPhase
4,0,B5,b,a,False,1778,3,15133,trainPhase
5,0,A9,a,b,False,2165,3,15133,trainPhase
6,0,A8,a,a,True,1502,3,15133,trainPhase
7,0,B6,b,b,True,1732,3,15133,trainPhase
8,0,A6,a,a,True,1287,3,15133,trainPhase
9,0,A10,a,b,False,2297,3,15133,trainPhase
10,0,B8,b,b,True,2025,3,15133,trainPhase
11,0,A3,a,a,True,1194,3,15133,trainPhase
12,0,A11,a,b,False,1296,3,15133,trainPhase
13,0,B2,b,b,True,2041,3,15133,trainPhase
14,0,B4,b,b,True,4755,3,15133,trainPhase
15,0,A5,a,a,True,2205,3,15133,trainPhase
16,0,B0,b,a,False,2104,3,15133,trainPhase
17,0,B11,b,b,True,2286,3,15133,trainPhase
18,0,B7,b,b,True,3086,3,15133,trainPhase
19,0,A4,a,a,True,1808,3,15133,trainPhase
20,0,A0,a,a,True,2017,3,15133,trainPhase
21,0,A1,a,a,True,1220,3,15133,trainPhase
22,0,A7,a,a,True,4181,3,15133,trainPhase
23,0,A2,a,a,True,1160,3,15133,trainPhase
0,1,B8,b,b,True,1363,3,15133,trainPhase
1,1,B9,b,b,True,1112,3,15133,trainPhase
2,1,A5,a,a,True,2776,3,15133,trainPhase
3,1,B5,b,b,True,1601,3,15133,trainPhase
4,1,A11,a,b,False,2459,3,15133,trainPhase
5,1,A3,a,a,True,1203,3,15133,trainPhase
6,1,A7,a,a,True,1724,3,15133,trainPhase
7,1,A10,a,b,False,1403,3,15133,trainPhase
8,1,A8,a,a,True,1458,3,15133,trainPhase
9,1,B3,b,b,True,1358,3,15133,trainPhase
10,1,A4,a,a,True,1195,3,15133,trainPhase
11,1,B11,b,b,True,1362,3,15133,trainPhase
12,1,B7,b,b,True,2336,3,15133,trainPhase
13,1,B6,b,b,True,1834,3,15133,trainPhase
14,1,A9,a,a,True,1340,3,15133,trainPhase
15,1,A1,a,a,True,1219,3,15133,trainPhase
16,1,B1,b,b,True,1295,3,15133,trainPhase
17,1,A6,a,a,True,1362,3,15133,trainPhase
18,1,B0,b,b,True,1184,3,15133,trainPhase
19,1,A0,a,a,True,1239,3,15133,trainPhase
20,1,B4,b,b,True,1375,3,15133,trainPhase
21,1,B2,b,b,True,1195,3,15133,trainPhase
22,1,A2,a,a,True,1198,3,15133,trainPhase
23,1,B10,b,b,True,4008,3,15133,trainPhase
0,0,A6,a,a,True,2290,3,15138,trainPhase
1,0,B4,b,a,False,2604,3,15138,trainPhase
2,0,A4,a,b,False,3695,3,15138,trainPhase
3,0,A3,a,a,True,1746,3,15138,trainPhase
4,0,B0,b,a,False,2633,3,15138,trainPhase
5,0,B5,b,b,True,2016,3,15138,trainPhase
6,0,B9,b,b,True,1358,3,15138,trainPhase
7,0,B10,b,b,True,1214,3,15138,trainPhase
8,0,B8,b,b,True,1313,3,15138,trainPhase
9,0,A1,a,a,True,1370,3,15138,trainPhase
10,0,B7,b,b,True,946,3,15138,trainPhase
11,0,A8,a,b,False,2055,3,15138,trainPhase
12,0,A10,a,a,True,1429,3,15138,trainPhase
13,0,A2,a,a,True,1365,3,15138,trainPhase
14,0,B11,b,b,True,1066,3,15138,trainPhase
15,0,B6,b,b,True,875,3,15138,trainPhase
16,0,B1,b,b,True,881,3,15138,trainPhase
17,0,A9,a,b,False,1357,3,15138,trainPhase
18,0,A7,a,a,True,1091,3,15138,trainPhase
19,0,A5,a,a,True,1069,3,15138,trainPhase
20,0,B3,b,b,True,907,3,15138,trainPhase
21,0,A0,a,a,True,1258,3,15138,trainPhase
22,0,B2,b,b,True,1365,3,15138,trainPhase
23,0,A11,a,b,False,1112,3,15138,trainPhase
0,1,A7,a,a,True,1010,3,15138,trainPhase
1,1,A4,a,b,False,1114,3,15138,trainPhase
2,1,A1,a,a,True,815,3,15138,trainPhase
3,1,A0,a,a,True,798,3,15138,trainPhase
4,1,B9,b,b,True,851,3,15138,trainPhase
5,1,B8,b,b,True,786,3,15138,trainPhase
6,1,B11,b,b,True,847,3,15138,trainPhase
7,1,B5,b,b,True,1045,3,15138,trainPhase
8,1,B2,b,b,True,1042,3,15138,trainPhase
9,1,B0,b,b,True,899,3,15138,trainPhase
10,1,A2,a,a,True,834,3,15138,trainPhase
11,1,A3,a,a,True,793,3,15138,trainPhase
12,1,B1,b,b,True,961,3,15138,trainPhase
13,1,B4,b,b,True,762,3,15138,trainPhase
14,1,A5,a,a,True,1049,3,15138,trainPhase
15,1,B3,b,b,True,953,3,15138,trainPhase
16,1,A10,a,b,False,1337,3,15138,trainPhase
17,1,A8,a,a,True,950,3,15138,trainPhase
18,1,B6,b,b,True,877,3,15138,trainPhase
19,1,A6,a,a,True,1317,3,15138,trainPhase
20,1,A9,a,a,True,945,3,15138,trainPhase
21,1,A11,a,a,True,1029,3,15138,trainPhase
22,1,B7,b,b,True,774,3,15138,trainPhase
23,1,B10,b,b,True,774,3,15138,trainPhase
0,2,A9,a,a,True,992,3,15138,trainPhase
1,2,B8,b,b,True,751,3,15138,trainPhase
2,2,B2,b,a,False,2100,3,15138,trainPhase
3,2,B7,b,b,True,1118,3,15138,trainPhase
4,2,A0,a,a,True,718,3,15138,trainPhase
5,2,A7,a,a,True,1974,3,15138,trainPhase
6,2,A5,a,a,True,1073,3,15138,trainPhase
7,2,B4,b,b,True,708,3,15138,trainPhase
8,2,B6,b,b,True,1070,3,15138,trainPhase
9,2,A2,a,a,True,963,3,15138,trainPhase
10,2,A10,a,a,True,860,3,15138,trainPhase
11,2,A3,a,a,True,1216,3,15138,trainPhase
12,2,B9,b,b,True,997,3,15138,trainPhase
13,2,A1,a,a,True,924,3,15138,trainPhase
14,2,B0,b,a,False,2115,3,15138,trainPhase
15,2,B3,b,b,True,2037,3,15138,trainPhase
16,2,A4,a,a,True,1173,3,15138,trainPhase
17,2,A11,a,b,False,1413,3,15138,trainPhase
18,2,B1,b,b,True,1640,3,15138,trainPhase
19,2,A8,a,b,False,2587,3,15138,trainPhase
20,2,B10,b,b,True,1428,3,15138,trainPhase
21,2,B5,b,a,False,742,3,15138,trainPhase
22,2,B11,b,b,True,850,3,15138,trainPhase
23,2,A6,a,a,True,1374,3,15138,trainPhase
0,3,A2,a,a,True,901,3,15138,trainPhase
1,3,A4,a,a,True,652,3,15138,trainPhase
2,3,A1,a,a,True,645,3,15138,trainPhase
3,3,B0,b,b,True,902,3,15138,trainPhase
4,3,A11,a,b,False,661,3,15138,trainPhase
5,3,B3,b,b,True,1254,3,15138,trainPhase
6,3,A6,a,b,False,1070,3,15138,trainPhase
7,3,A10,a,a,True,1989,3,15138,trainPhase
8,3,B11,b,b,True,972,3,15138,trainPhase
9,3,B6,b,b,True,1163,3,15138,trainPhase
10,3,B2,b,b,True,1818,3,15138,trainPhase
11,3,B7,b,b,True,804,3,15138,trainPhase
12,3,A8,a,b,False,757,3,15138,trainPhase
13,3,A3,a,a,True,1182,3,15138,trainPhase
14,3,A9,a,a,True,1151,3,15138,trainPhase
15,3,B4,b,b,True,1497,3,15138,trainPhase
16,3,B9,b,b,True,730,3,15138,trainPhase
17,3,B5,b,b,True,974,3,15138,trainPhase
18,3,B1,b,b,True,879,3,15138,trainPhase
19,3,A7,a,b,False,1014,3,15138,trainPhase
20,3,B10,b,b,True,1900,3,15138,trainPhase
21,3,B8,b,b,True,715,3,15138,trainPhase
22,3,A0,a,a,True,1091,3,15138,trainPhase
23,3,A5,a,a,True,1349,3,15138,trainPhase
0,4,B0,b,b,True,1415,3,15138,trainPhase
1,4,B7,b,b,True,669,3,15138,trainPhase
2,4,B11,b,b,True,687,3,15138,trainPhase
3,4,A3,a,a,True,1450,3,15138,trainPhase
4,4,B9,b,b,True,740,3,15138,trainPhase
5,4,A8,a,b,False,1801,3,15138,trainPhase
6,4,A10,a,b,False,1838,3,15138,trainPhase
7,4,B2,b,b,True,1013,3,15138,trainPhase
8,4,A2,a,a,True,790,3,15138,trainPhase
9,4,B1,b,b,True,2452,3,15138,trainPhase
10,4,B4,b,b,True,850,3,15138,trainPhase
11,4,A1,a,a,True,792,3,15138,trainPhase
12,4,A7,a,a,True,911,3,15138,trainPhase
13,4,A4,a,a,True,981,3,15138,trainPhase
14,4,A11,a,a,True,789,3,15138,trainPhase
15,4,B5,b,b,True,767,3,15138,trainPhase
16,4,B10,b,b,True,642,3,15138,trainPhase
17,4,A9,a,b,False,1134,3,15138,trainPhase
18,4,B8,b,b,True,1143,3,15138,trainPhase
19,4,B3,b,a,False,1293,3,15138,trainPhase
20,4,A5,a,a,True,1165,3,15138,trainPhase
21,4,A6,a,a,True,1373,3,15138,trainPhase
22,4,A0,a,a,True,756,3,15138,trainPhase
23,4,B6,b,b,True,751,3,15138,trainPhase
0,5,B4,b,b,True,3629,3,15138,trainPhase
1,5,A1,a,a,True,825,3,15138,trainPhase
2,5,A10,a,b,False,964,3,15138,trainPhase
3,5,A8,a,a,True,1365,3,15138,trainPhase
4,5,B0,b,b,True,886,3,15138,trainPhase
5,5,B3,b,b,True,2246,3,15138,trainPhase
6,5,B8,b,b,True,781,3,15138,trainPhase
7,5,A0,a,a,True,791,3,15138,trainPhase
8,5,A9,a,a,True,1984,3,15138,trainPhase
9,5,A11,a,a,True,1111,3,15138,trainPhase
10,5,B6,b,b,True,749,3,15138,trainPhase
11,5,A5,a,a,True,1618,3,15138,trainPhase
12,5,B9,b,b,True,726,3,15138,trainPhase
13,5,A6,a,a,True,1269,3,15138,trainPhase
14,5,B11,b,b,True,739,3,15138,trainPhase
15,5,B1,b,a,False,1098,3,15138,trainPhase
16,5,B2,b,b,True,1270,3,15138,trainPhase
17,5,B5,b,b,True,919,3,15138,trainPhase
18,5,A2,a,a,True,1132,3,15138,trainPhase
19,5,A3,a,a,True,1305,3,15138,trainPhase
20,5,A7,a,b,False,1099,3,15138,trainPhase
21,5,A4,a,a,True,1765,3,15138,trainPhase
22,5,B7,b,b,True,1340,3,15138,trainPhase
23,5,B10,b,b,True,966,3,15138,trainPhase
0,6,B10,b,b,True,1036,3,15138,trainPhase
1,6,B8,b,b,True,890,3,15138,trainPhase
2,6,A7,a,a,True,1053,3,15138,trainPhase
3,6,A11,a,a,True,816,3,15138,trainPhase
4,6,B7,b,b,True,783,3,15138,trainPhase
5,6,B11,b,b,True,726,3,15138,trainPhase
6,6,A10,a,a,True,2400,3,15138,trainPhase
7,6,B3,b,a,False,1159,3,15138,trainPhase
8,6,B6,b,b,True,869,3,15138,trainPhase
9,6,B2,b,b,True,1402,3,15138,trainPhase
10,6,A5,a,a,True,622,3,15138,trainPhase
11,6,A1,a,a,True,862,3,15138,trainPhase
12,6,B5,b,b,True,1039,3,15138,trainPhase
13,6,A2,a,a,True,728,3,15138,trainPhase
14,6,A8,a,a,True,3542,3,15138,trainPhase
15,6,A4,a,a,True,1253,3,15138,trainPhase
16,6,B0,b,b,True,2438,3,15138,trainPhase
17,6,B4,b,b,True,877,3,15138,trainPhase
18,6,A0,a,a,True,1110,3,15138,trainPhase
19,6,B9,b,b,True,769,3,15138,trainPhase
20,6,A6,a,a,True,1128,3,15138,trainPhase
21,6,A3,a,a,True,875,3,15138,trainPhase
22,6,A9,a,a,True,1399,3,15138,trainPhase
23,6,B1,b,b,True,1071,3,15138,trainPhase
0,0,A6,a,a,True,3067,3,15143,trainPhase
1,0,A10,a,a,True,993,3,15143,trainPhase
2,0,B9,b,a,False,1806,3,15143,trainPhase
3,0,B0,b,b,True,1414,3,15143,trainPhase
4,0,A0,a,a,True,863,3,15143,trainPhase
5,0,A4,a,a,True,1518,3,15143,trainPhase
6,0,B6,b,b,True,785,3,15143,trainPhase
7,0,A2,a,a,True,853,3,15143,trainPhase
8,0,B5,b,b,True,774,3,15143,trainPhase
9,0,A3,a,a,True,927,3,15143,trainPhase
10,0,A11,a,b,False,1495,3,15143,trainPhase
11,0,A7,a,a,True,1154,3,15143,trainPhase
12,0,B4,b,b,True,869,3,15143,trainPhase
13,0,A8,a,b,False,1385,3,15143,trainPhase
14,0,B1,b,b,True,905,3,15143,trainPhase
15,0,B8,b,b,True,1004,3,15143,trainPhase
16,0,A5,a,a,True,865,3,15143,trainPhase
17,0,B7,b,b,True,929,3,15143,trainPhase
18,0,B10,b,b,True,819,3,15143,trainPhase
19,0,B11,b,b,True,679,3,15143,trainPhase
20,0,A1,a,a,True,1385,3,15143,trainPhase
21,0,B3,b,a,False,1411,3,15143,trainPhase
22,0,B2,b,b,True,923,3,15143,trainPhase
23,0,A9,a,b,False,783,3,15143,trainPhase
0,1,B6,b,b,True,1039,3,15143,trainPhase
1,1,B0,b,b,True,803,3,15143,trainPhase
2,1,A0,a,a,True,1275,3,15143,trainPhase
3,1,B1,b,b,True,1825,3,15143,trainPhase
4,1,A11,a,a,True,2844,3,15143,trainPhase
5,1,A3,a,a,True,1007,3,15143,trainPhase
6,1,A1,a,a,True,834,3,15143,trainPhase
7,1,B5,b,a,False,1585,3,15143,trainPhase
8,1,A2,a,a,True,886,3,15143,trainPhase
9,1,A5,a,a,True,817,3,15143,trainPhase
10,1,B11,b,b,True,824,3,15143,trainPhase
11,1,A9,a,b,False,886,3,15143,trainPhase
12,1,B9,b,b,True,945,3,15143,trainPhase
13,1,B7,b,b,True,728,3,15143,trainPhase
14,1,A6,a,a,True,1624,3,15143,trainPhase
15,1,B2,b,b,True,976,3,15143,trainPhase
16,1,B4,b,b,True,831,3,15143,trainPhase
17,1,A8,a,a,True,1079,3,15143,trainPhase
18,1,A10,a,a,True,1097,3,15143,trainPhase
19,1,B3,b,b,True,858,3,15143,trainPhase
20,1,A7,a,a,True,896,3,15143,trainPhase
21,1,A4,a,a,True,774,3,15143,trainPhase
22,1,B10,b,b,True,767,3,15143,trainPhase
23,1,B8,b,b,True,1100,3,15143,trainPhase
0,2,A5,a,a,True,1217,3,15143,trainPhase
1,2,B1,b,b,True,1805,3,15143,trainPhase
2,2,B9,b,b,True,783,3,15143,trainPhase
3,2,B11,b,b,True,822,3,15143,trainPhase
0,0,B4,b,a,False,4400,3,15148,trainPhase
1,0,A7,a,b,False,8370,3,15148,trainPhase
2,0,A4,a,b,False,2747,3,15148,trainPhase
3,0,A8,a,a,True,3241,3,15148,trainPhase
4,0,B8,b,b,True,3345,3,15148,trainPhase
5,0,B0,b,a,False,1741,3,15148,trainPhase
6,0,A0,a,a,True,6234,3,15148,trainPhase
7,0,B7,b,b,True,3704,3,15148,trainPhase
8,0,B2,b,b,True,1676,3,15148,trainPhase
9,0,B9,b,b,True,2440,3,15148,trainPhase
10,0,A11,a,b,False,2251,3,15148,trainPhase
11,0,B10,b,b,True,1494,3,15148,trainPhase
12,0,B3,b,b,True,3030,3,15148,trainPhase
13,0,B11,b,b,True,1049,3,15148,trainPhase
14,0,B1,b,a,False,1749,3,15148,trainPhase
15,0,A5,a,a,True,1555,3,15148,trainPhase
16,0,A6,a,a,True,1121,3,15148,trainPhase
17,0,B6,b,b,True,4197,3,15148,trainPhase
18,0,A10,a,a,True,2914,3,15148,trainPhase
19,0,A2,a,a,True,1263,3,15148,trainPhase
20,0,B5,b,b,True,1352,3,15148,trainPhase
21,0,A9,a,a,True,1837,3,15148,trainPhase
22,0,A1,a,a,True,1031,3,15148,trainPhase
23,0,A3,a,a,True,2117,3,15148,trainPhase
0,1,A7,a,a,True,908,3,15148,trainPhase
1,1,B9,b,b,True,821,3,15148,trainPhase
2,1,B6,b,b,True,2713,3,15148,trainPhase
3,1,A0,a,a,True,842,3,15148,trainPhase
4,1,A6,a,a,True,750,3,15148,trainPhase
5,1,B7,b,b,True,806,3,15148,trainPhase
6,1,A11,a,b,False,843,3,15148,trainPhase
7,1,B11,b,b,True,973,3,15148,trainPhase
8,1,A3,a,a,True,777,3,15148,trainPhase
9,1,B3,b,b,True,1352,3,15148,trainPhase
10,1,A5,a,a,True,1395,3,15148,trainPhase
11,1,B0,b,a,False,1318,3,15148,trainPhase
12,1,B8,b,b,True,1227,3,15148,trainPhase
13,1,A1,a,a,True,893,3,15148,trainPhase
14,1,B2,b,b,True,1189,3,15148,trainPhase
15,1,B5,b,b,True,663,3,15148,trainPhase
16,1,A8,a,a,True,1023,3,15148,trainPhase
17,1,A4,a,a,True,1109,3,15148,trainPhase
18,1,B10,b,b,True,815,3,15148,trainPhase
19,1,B1,b,a,False,3075,3,15148,trainPhase
20,1,B4,b,b,True,1232,3,15148,trainPhase
21,1,A10,a,a,True,2709,3,15148,trainPhase
22,1,A9,a,a,True,978,3,15148,trainPhase
23,1,A2,a,a,True,1176,3,15148,trainPhase
0,2,B10,b,b,True,865,3,15148,trainPhase
1,2,A2,a,a,True,1661,3,15148,trainPhase
2,2,A0,a,a,True,705,3,15148,trainPhase
3,2,A1,a,a,True,1063,3,15148,trainPhase
4,2,B0,b,b,True,1896,3,15148,trainPhase
5,2,A4,a,a,True,787,3,15148,trainPhase
6,2,B11,b,b,True,1086,3,15148,trainPhase
7,2,B4,b,b,True,2413,3,15148,trainPhase
8,2,A11,a,a,True,2326,3,15148,trainPhase
9,2,A3,a,a,True,819,3,15148,trainPhase
10,2,A5,a,a,True,1213,3,15148,trainPhase
11,2,B5,b,b,True,1448,3,15148,trainPhase
0,0,A4,a,b,False,3419,3,15153,trainPhase
1,0,B0,b,a,False,1544,3,15153,trainPhase
2,0,A7,a,a,True,3762,3,15153,trainPhase
3,0,A6,a,b,False,2516,3,15153,trainPhase
4,0,A8,a,b,False,1558,3,15153,trainPhase
5,0,B7,b,b,True,1421,3,15153,trainPhase
6,0,A1,a,a,True,1392,3,15153,trainPhase
7,0,B3,b,b,True,934,3,15153,trainPhase
8,0,A10,a,a,True,1148,3,15153,trainPhase
9,0,A0,a,b,False,1214,3,15153,trainPhase
10,0,A11,a,b,False,1432,3,15153,trainPhase
11,0,A9,a,a,True,2214,3,15153,trainPhase
12,0,B11,b,b,True,1268,3,15153,trainPhase
13,0,A5,a,a,True,933,3,15153,trainPhase
14,0,A2,a,a,True,953,3,15153,trainPhase
15,0,A3,a,a,True,1001,3,15153,trainPhase
16,0,B10,b,b,True,963,3,15153,trainPhase
17,0,B6,b,a,False,1210,3,15153,trainPhase
18,0,B1,b,a,False,2657,3,15153,trainPhase
19,0,B5,b,b,True,953,3,15153,trainPhase
20,0,B2,b,b,True,1780,3,15153,trainPhase
21,0,B8,b,a,False,2036,3,15153,trainPhase
22,0,B9,b,b,True,1262,3,15153,trainPhase
23,0,B4,b,b,True,749,3,15153,trainPhase
0,1,B3,b,b,True,733,3,15153,trainPhase
1,1,A5,a,a,True,1733,3,15153,trainPhase
2,1,A2,a,a,True,997,3,15153,trainPhase
3,1,A7,a,a,True,935,3,15153,trainPhase
4,1,B2,b,b,True,975,3,15153,trainPhase
5,1,B0,b,a,False,2374,3,15153,trainPhase
6,1,B10,b,b,True,946,3,15153,trainPhase
7,1,A8,a,a,True,1541,3,15153,trainPhase
8,1,A6,a,a,True,907,3,15153,trainPhase
9,1,A11,a,b,False,1469,3,15153,trainPhase
10,1,B4,b,b,True,1337,3,15153,trainPhase
11,1,B8,b,a,False,1376,3,15153,trainPhase
12,1,A10,a,a,True,1874,3,15153,trainPhase
13,1,B6,b,a,False,920,3,15153,trainPhase
14,1,B9,b,b,True,1589,3,15153,trainPhase
15,1,A3,a,a,True,1087,3,15153,trainPhase
16,1,B5,b,b,True,1134,3,15153,trainPhase
17,1,A4,a,a,True,978,3,15153,trainPhase
18,1,A1,a,a,True,1262,3,15153,trainPhase
19,1,B11,b,b,True,1024,3,15153,trainPhase
20,1,A9,a,a,True,1103,3,15153,trainPhase
21,1,A0,a,a,True,1180,3,15153,trainPhase
22,1,B7,b,b,True,1000,3,15153,trainPhase
23,1,B1,b,a,False,1314,3,15153,trainPhase
0,2,A7,a,a,True,981,3,15153,trainPhase
1,2,A11,a,b,False,846,3,15153,trainPhase
2,2,A6,a,a,True,1128,3,15153,trainPhase
3,2,B3,b,a,False,2229,3,15153,trainPhase
4,2,A8,a,a,True,933,3,15153,trainPhase
5,2,B6,b,b,True,2853,3,15153,trainPhase
6,2,A4,a,a,True,1333,3,15153,trainPhase
7,2,A3,a,a,True,878,3,15153,trainPhase
8,2,B1,b,b,True,978,3,15153,trainPhase
9,2,A5,a,a,True,951,3,15153,trainPhase
10,2,B5,b,b,True,1120,3,15153,trainPhase
11,2,B10,b,b,True,1166,3,15153,trainPhase
12,2,B8,b,b,True,805,3,15153,trainPhase
13,2,B7,b,b,True,1261,3,15153,trainPhase
14,2,A9,a,a,True,963,3,15153,trainPhase
15,2,A2,a,a,True,904,3,15153,trainPhase
16,2,B9,b,b,True,957,3,15153,trainPhase
17,2,B4,b,b,True,1142,3,15153,trainPhase
18,2,B2,b,b,True,1159,3,15153,trainPhase
19,2,B11,b,b,True,806,3,15153,trainPhase
0,0,A0,a,b,False,2214,3,15158,trainPhase
1,0,B7,b,a,False,3524,3,15158,trainPhase
2,0,A9,a,a,True,5230,3,15158,trainPhase
3,0,B0,b,a,False,2579,3,15158,trainPhase
4,0,A6,a,a,True,3597,3,15158,trainPhase
5,0,A7,a,b,False,1233,3,15158,trainPhase
6,0,A10,a,b,False,1240,3,15158,trainPhase
7,0,A1,a,b,False,8295,3,15158,trainPhase
8,0,A3,a,a,True,1959,3,15158,trainPhase
9,0,B2,b,b,True,2057,3,15158,trainPhase
10,0,A4,a,b,False,2064,3,15158,trainPhase
11,0,A5,a,a,True,2937,3,15158,trainPhase
12,0,B10,b,b,True,1398,3,15158,trainPhase
13,0,A2,a,a,True,1983,3,15158,trainPhase
14,0,B11,b,b,True,1185,3,15158,trainPhase
15,0,B3,b,b,True,1417,3,15158,trainPhase
16,0,B9,b,b,True,1811,3,15158,trainPhase
17,0,A11,a,a,True,2016,3,15158,trainPhase
18,0,B4,b,b,True,1244,3,15158,trainPhase
19,0,B1,b,a,False,1670,3,15158,trainPhase
20,0,B6,b,b,True,3262,3,15158,trainPhase
21,0,A8,a,a,True,1150,3,15158,trainPhase
22,0,B8,b,b,True,1549,3,15158,trainPhase
23,0,B5,b,b,True,1831,3,15158,trainPhase
0,1,B3,b,b,True,1685,3,15158,trainPhase
1,1,A2,a,a,True,1138,3,15158,trainPhase
2,1,B5,b,b,True,1206,3,15158,trainPhase
3,1,B2,b,b,True,1847,3,15158,trainPhase
4,1,A0,a,a,True,1203,3,15158,trainPhase
5,1,A4,a,a,True,2499,3,15158,trainPhase
6,1,B6,b,a,False,1310,3,15158,trainPhase
7,1,B10,b,b,True,1252,3,15158,trainPhase
8,1,B1,b,b,True,1375,3,15158,trainPhase
9,1,B9,b,b,True,1170,3,15158,trainPhase
10,1,B7,b,b,True,2584,3,15158,trainPhase
11,1,B8,b,b,True,1039,3,15158,trainPhase
12,1,A6,a,a,True,1088,3,15158,trainPhase
13,1,A5,a,b,False,1324,3,15158,trainPhase
14,1,A9,a,a,True,1589,3,15158,trainPhase
15,1,B11,b,b,True,1023,3,15158,trainPhase
16,1,A8,a,a,True,2239,3,15158,trainPhase
17,1,B0,b,a,False,1614,3,15158,trainPhase
18,1,B4,b,b,True,935,3,15158,trainPhase
19,1,A3,a,b,False,1150,3,15158,trainPhase
20,1,A7,a,a,True,3119,3,15158,trainPhase
21,1,A11,a,b,False,3831,3,15158,trainPhase
22,1,A1,a,a,True,1066,3,15158,trainPhase
23,1,A10,a,a,True,1464,3,15158,trainPhase
0,2,A3,a,a,True,1236,3,15158,trainPhase
1,2,B10,b,b,True,1117,3,15158,trainPhase
2,2,B2,b,b,True,4300,3,15158,trainPhase
3,2,B4,b,b,True,1059,3,15158,trainPhase
4,2,B11,b,b,True,958,3,15158,trainPhase
5,2,A5,a,b,False,2811,3,15158,trainPhase
6,2,B8,b,b,True,1672,3,15158,trainPhase
7,2,B9,b,b,True,1149,3,15158,trainPhase
8,2,A8,a,a,True,884,3,15158,trainPhase
9,2,B0,b,a,False,820,3,15158,trainPhase
10,2,B5,b,b,True,859,3,15158,trainPhase
11,2,A10,a,b,False,2171,3,15158,trainPhase
12,2,A6,a,a,True,995,3,15158,trainPhase
13,2,A1,a,a,True,704,3,15158,trainPhase
14,2,A4,a,a,True,974,3,15158,trainPhase
15,2,A2,a,a,True,905,3,15158,trainPhase
16,2,B6,b,a,False,1695,3,15158,trainPhase
17,2,A0,a,a,True,2306,3,15158,trainPhase
18,2,A9,a,a,True,787,3,15158,trainPhase
19,2,A7,a,a,True,616,3,15158,trainPhase
20,2,A11,a,a,True,1948,3,15158,trainPhase
21,2,B1,b,a,False,1183,3,15158,trainPhase
22,2,B3,b,b,True,1297,3,15158,trainPhase
23,2,B7,b,b,True,1119,3,15158,trainPhase
0,3,B0,b,a,False,1122,3,15158,trainPhase
1,3,B1,b,b,True,1142,3,15158,trainPhase
2,3,A8,a,a,True,903,3,15158,trainPhase
3,3,B6,b,b,True,3070,3,15158,trainPhase
4,3,A9,a,a,True,907,3,15158,trainPhase
5,3,A6,a,a,True,816,3,15158,trainPhase
6,3,B8,b,b,True,1045,3,15158,trainPhase
7,3,A7,a,a,True,1057,3,15158,trainPhase
8,3,A4,a,a,True,2311,3,15158,trainPhase
9,3,B11,b,b,True,1128,3,15158,trainPhase
10,3,A5,a,b,False,820,3,15158,trainPhase
11,3,A11,a,a,True,934,3,15158,trainPhase
12,3,A1,a,a,True,707,3,15158,trainPhase
13,3,A0,a,a,True,1012,3,15158,trainPhase
14,3,A2,a,a,True,1003,3,15158,trainPhase
15,3,B4,b,b,True,970,3,15158,trainPhase
16,3,B10,b,b,True,808,3,15158,trainPhase
17,3,B7,b,b,True,1902,3,15158,trainPhase
18,3,A3,a,a,True,1056,3,15158,trainPhase
19,3,B3,b,b,True,1013,3,15158,trainPhase
20,3,A10,a,b,False,1419,3,15158,trainPhase
21,3,B2,b,b,True,893,3,15158,trainPhase
22,3,B9,b,b,True,740,3,15158,trainPhase
23,3,B5,b,b,True,782,3,15158,trainPhase
0,4,A1,a,a,True,770,3,15158,trainPhase
1,4,B11,b,b,True,785,3,15158,trainPhase
2,4,A3,a,a,True,909,3,15158,trainPhase
3,4,B7,b,b,True,905,3,15158,trainPhase
4,4,B2,b,b,True,1563,3,15158,trainPhase
5,4,B1,b,b,True,761,3,15158,trainPhase
6,4,B4,b,b,True,725,3,15158,trainPhase
7,4,A11,a,b,False,1201,3,15158,trainPhase
8,4,A0,a,a,True,1253,3,15158,trainPhase
9,4,A6,a,a,True,695,3,15158,trainPhase
10,4,B5,b,b,True,1033,3,15158,trainPhase
11,4,B9,b,b,True,639,3,15158,trainPhase
12,4,A4,a,a,True,1147,3,15158,trainPhase
13,4,B3,b,b,True,969,3,15158,trainPhase
14,4,B6,b,b,True,2635,3,15158,trainPhase
15,4,B10,b,b,True,872,3,15158,trainPhase
16,4,A8,a,a,True,792,3,15158,trainPhase
17,4,B0,b,b,True,1990,3,15158,trainPhase
18,4,A5,a,b,False,1678,3,15158,trainPhase
19,4,A10,a,b,False,1610,3,15158,trainPhase
20,4,A2,a,a,True,895,3,15158,trainPhase
21,4,B8,b,b,True,1692,3,15158,trainPhase
22,4,A7,a,a,True,871,3,15158,trainPhase
23,4,A9,a,a,True,1154,3,15158,trainPhase
0,5,A7,a,a,True,716,3,15158,trainPhase
1,5,A11,a,b,False,1621,3,15158,trainPhase
2,5,B1,b,a,False,829,3,15158,trainPhase
3,5,A2,a,a,True,2399,3,15158,trainPhase
4,5,B7,b,b,True,1224,3,15158,trainPhase
5,5,B3,b,b,True,917,3,15158,trainPhase
6,5,A3,a,a,True,1727,3,15158,trainPhase
7,5,A1,a,a,True,718,3,15158,trainPhase
8,5,B10,b,b,True,881,3,15158,trainPhase
9,5,A6,a,a,True,866,3,15158,trainPhase
10,5,A8,a,a,True,1014,3,15158,trainPhase
11,5,B8,b,b,True,937,3,15158,trainPhase
12,5,B11,b,b,True,811,3,15158,trainPhase
13,5,A0,a,a,True,881,3,15158,trainPhase
14,5,B5,b,b,True,928,3,15158,trainPhase
15,5,B2,b,b,True,1195,3,15158,trainPhase
16,5,B9,b,b,True,682,3,15158,trainPhase
17,5,B0,b,a,False,1236,3,15158,trainPhase
18,5,A5,a,b,False,1009,3,15158,trainPhase
19,5,A4,a,a,True,775,3,15158,trainPhase
20,5,B6,b,a,False,844,3,15158,trainPhase
21,5,A9,a,a,True,1051,3,15158,trainPhase
22,5,B4,b,b,True,879,3,15158,trainPhase
23,5,A10,a,b,False,1511,3,15158,trainPhase
0,6,A7,a,a,True,1144,3,15158,trainPhase
1,6,A11,a,a,True,667,3,15158,trainPhase
2,6,B9,b,b,True,979,3,15158,trainPhase
3,6,B11,b,b,True,926,3,15158,trainPhase
4,6,B5,b,b,True,775,3,15158,trainPhase
5,6,A1,a,a,True,768,3,15158,trainPhase
6,6,B7,b,a,False,882,3,15158,trainPhase
7,6,B10,b,b,True,893,3,15158,trainPhase
8,6,B2,b,b,True,2917,3,15158,trainPhase
9,6,A8,a,a,True,782,3,15158,trainPhase
10,6,A4,a,a,True,565,3,15158,trainPhase
11,6,A6,a,a,True,574,3,15158,trainPhase
12,6,A0,a,a,True,471,3,15158,trainPhase
13,6,B0,b,b,True,1264,3,15158,trainPhase
14,6,B6,b,a,False,812,3,15158,trainPhase
15,6,A3,a,b,False,788,3,15158,trainPhase
16,6,A10,a,a,True,1265,3,15158,trainPhase
17,6,A9,a,a,True,871,3,15158,trainPhase
18,6,B4,b,b,True,840,3,15158,trainPhase
19,6,B8,b,b,True,3341,3,15158,trainPhase
20,6,B1,b,b,True,1252,3,15158,trainPhase
21,6,A2,a,a,True,908,3,15158,trainPhase
22,6,B3,b,b,True,872,3,15158,trainPhase
23,6,A5,a,b,False,909,3,15158,trainPhase
0,7,B11,b,b,True,1014,3,15158,trainPhase
1,7,B0,b,b,True,1612,3,15158,trainPhase
2,7,A11,a,b,False,878,3,15158,trainPhase
3,7,A7,a,a,True,528,3,15158,trainPhase
4,7,A0,a,a,True,399,3,15158,trainPhase
5,7,B3,b,b,True,803,3,15158,trainPhase
6,7,A10,a,a,True,829,3,15158,trainPhase
7,7,A5,a,a,True,686,3,15158,trainPhase
8,7,A6,a,a,True,632,3,15158,trainPhase
9,7,A2,a,a,True,441,3,15158,trainPhase
10,7,B4,b,b,True,904,3,15158,trainPhase
11,7,B10,b,b,True,1087,3,15158,trainPhase
12,7,A4,a,a,True,1085,3,15158,trainPhase
13,7,B1,b,a,False,888,3,15158,trainPhase
14,7,A8,a,a,True,983,3,15158,trainPhase
15,7,A3,a,a,True,866,3,15158,trainPhase
16,7,A1,a,a,True,735,3,15158,trainPhase
17,7,B5,b,b,True,865,3,15158,trainPhase
18,7,B6,b,b,True,1532,3,15158,trainPhase
19,7,B7,b,b,True,1249,3,15158,trainPhase
20,7,B2,b,b,True,799,3,15158,trainPhase
21,7,B8,b,b,True,879,3,15158,trainPhase
22,7,A9,a,a,True,913,3,15158,trainPhase
23,7,B9,b,b,True,917,3,15158,trainPhase
0,8,B11,b,b,True,1111,3,15158,trainPhase
1,8,B2,b,b,True,1998,3,15158,trainPhase
2,8,A6,a,a,True,845,3,15158,trainPhase
3,8,B1,b,b,True,1279,3,15158,trainPhase
4,8,B9,b,b,True,920,3,15158,trainPhase
5,8,B5,b,b,True,846,3,15158,trainPhase
0,0,B8,b,a,False,3317,3,15163,trainPhase
1,0,B0,b,b,True,2300,3,15163,trainPhase
2,0,B6,b,b,True,1765,3,15163,trainPhase
3,0,A11,a,b,False,1132,3,15163,trainPhase
4,0,B2,b,b,True,3594,3,15163,trainPhase
5,0,A2,a,a,True,1663,3,15163,trainPhase
6,0,B7,b,b,True,1093,3,15163,trainPhase
7,0,A8,a,a,True,1320,3,15163,trainPhase
8,0,A1,a,a,True,1190,3,15163,trainPhase
9,0,A6,a,a,True,1061,3,15163,trainPhase
10,0,A5,a,a,True,997,3,15163,trainPhase
11,0,B4,b,b,True,1029,3,15163,trainPhase
12,0,A4,a,a,True,960,3,15163,trainPhase
13,0,B9,b,b,True,1190,3,15163,trainPhase
14,0,A0,a,a,True,945,3,15163,trainPhase
15,0,B3,b,a,False,1235,3,15163,trainPhase
16,0,A10,a,a,True,1174,3,15163,trainPhase
17,0,A7,a,a,True,1045,3,15163,trainPhase
18,0,B1,b,b,True,1102,3,15163,trainPhase
19,0,B11,b,b,True,930,3,15163,trainPhase
20,0,B5,b,b,True,1062,3,15163,trainPhase
21,0,B10,b,b,True,1451,3,15163,trainPhase
22,0,A3,a,a,True,950,3,15163,trainPhase
23,0,A9,a,b,False,2944,3,15163,trainPhase
0,1,B4,b,b,True,2962,3,15163,trainPhase
1,1,B9,b,b,True,913,3,15163,trainPhase
2,1,A3,a,a,True,1483,3,15163,trainPhase
3,1,B0,b,b,True,1392,3,15163,trainPhase
4,1,A0,a,a,True,1339,3,15163,trainPhase
5,1,A9,a,b,False,3434,3,15163,trainPhase
6,1,A6,a,a,True,1273,3,15163,trainPhase
7,1,B3,b,b,True,876,3,15163,trainPhase
8,1,A10,a,b,False,1102,3,15163,trainPhase
9,1,B11,b,b,True,1116,3,15163,trainPhase
10,1,A4,a,a,True,807,3,15163,trainPhase
11,1,A11,a,b,False,726,3,15163,trainPhase
12,1,A7,a,a,True,1062,3,15163,trainPhase
13,1,A2,a,a,True,1256,3,15163,trainPhase
14,1,B2,b,b,True,711,3,15163,trainPhase
15,1,A5,a,a,True,694,3,15163,trainPhase
16,1,A8,a,a,True,923,3,15163,trainPhase
17,1,B10,b,b,True,1063,3,15163,trainPhase
18,1,B5,b,b,True,1558,3,15163,trainPhase
19,1,A1,a,a,True,939,3,15163,trainPhase
20,1,B8,b,b,True,814,3,15163,trainPhase
21,1,B6,b,b,True,766,3,15163,trainPhase
22,1,B1,b,b,True,983,3,15163,trainPhase
23,1,B7,b,b,True,1030,3,15163,trainPhase
0,2,B1,b,b,True,581,3,15163,trainPhase
1,2,A1,a,a,True,734,3,15163,trainPhase
2,2,B11,b,b,True,637,3,15163,trainPhase
3,2,A8,a,a,True,966,3,15163,trainPhase
0,0,B1,b,a,False,1786,3,15190,trainPhase
1,0,A2,a,a,True,1976,3,15190,trainPhase
2,0,B10,b,b,True,1687,3,15190,trainPhase
3,0,A5,a,b,False,1238,3,15190,trainPhase
4,0,B9,b,b,True,1433,3,15190,trainPhase
5,0,B0,b,a,False,1084,3,15190,trainPhase
6,0,A10,a,b,False,2462,3,15190,trainPhase
7,0,A1,a,b,False,3480,3,15190,trainPhase
8,0,B4,b,b,True,1550,3,15190,trainPhase
9,0,A4,a,b,False,3643,3,15190,trainPhase
10,0,B2,b,b,True,3173,3,15190,trainPhase
11,0,B7,b,b,True,1267,3,15190,trainPhase
12,0,B3,b,a,False,1162,3,15190,trainPhase
13,0,B6,b,b,True,961,3,15190,trainPhase
14,0,B11,b,b,True,1406,3,15190,trainPhase
15,0,B5,b,a,False,1539,3,15190,trainPhase
16,0,A7,a,a,True,1301,3,15190,trainPhase
17,0,A11,a,b,False,1387,3,15190,trainPhase
18,0,A6,a,b,False,2872,3,15190,trainPhase
19,0,A9,a,b,False,1241,3,15190,trainPhase
20,0,A3,a,b,False,2502,3,15190,trainPhase
21,0,A8,a,a,True,2437,3,15190,trainPhase
22,0,A0,a,b,False,1657,3,15190,trainPhase
23,0,B8,b,b,True,1722,3,15190,trainPhase
0,1,A2,a,a,True,1245,3,15190,trainPhase
1,1,A11,a,b,False,1339,3,15190,trainPhase
2,1,A3,a,a,True,2853,3,15190,trainPhase
3,1,A4,a,a,True,1444,3,15190,trainPhase
4,1,A7,a,b,False,1829,3,15190,trainPhase
5,1,B11,b,b,True,1238,3,15190,trainPhase
6,1,B6,b,a,False,1555,3,15190,trainPhase
7,1,B0,b,b,True,980,3,15190,trainPhase
8,1,B2,b,b,True,897,3,15190,trainPhase
9,1,B1,b,b,True,1029,3,15190,trainPhase
10,1,B9,b,b,True,1110,3,15190,trainPhase
11,1,A10,a,b,False,963,3,15190,trainPhase
12,1,A9,a,b,False,1215,3,15190,trainPhase
13,1,B7,b,b,True,858,3,15190,trainPhase
14,1,B10,b,b,True,966,3,15190,trainPhase
15,1,A0,a,a,True,990,3,15190,trainPhase
16,1,B4,b,b,True,1882,3,15190,trainPhase
17,1,A8,a,a,True,1330,3,15190,trainPhase
18,1,A1,a,a,True,1105,3,15190,trainPhase
19,1,B3,b,b,True,959,3,15190,trainPhase
20,1,A6,a,b,False,1320,3,15190,trainPhase
21,1,A5,a,b,False,1538,3,15190,trainPhase
22,1,B8,b,b,True,952,3,15190,trainPhase
23,1,B5,b,b,True,883,3,15190,trainPhase
0,2,A10,a,b,False,754,3,15190,trainPhase
1,2,B3,b,b,True,760,3,15190,trainPhase
2,2,A4,a,a,True,919,3,15190,trainPhase
3,2,B6,b,b,True,1462,3,15190,trainPhase
4,2,A8,a,a,True,1137,3,15190,trainPhase
5,2,B0,b,b,True,726,3,15190,trainPhase
6,2,A7,a,a,True,1948,3,15190,trainPhase
7,2,B4,b,b,True,875,3,15190,trainPhase
8,2,B1,b,b,True,445,3,15190,trainPhase
9,2,A9,a,b,False,892,3,15190,trainPhase
10,2,A5,a,a,True,1296,3,15190,trainPhase
11,2,A0,a,a,True,758,3,15190,trainPhase
12,2,B8,b,b,True,1529,3,15190,trainPhase
13,2,B9,b,b,True,615,3,15190,trainPhase
14,2,B11,b,b,True,521,3,15190,trainPhase
15,2,A1,a,a,True,927,3,15190,trainPhase
16,2,B5,b,b,True,637,3,15190,trainPhase
17,2,B2,b,b,True,596,3,15190,trainPhase
18,2,A11,a,b,False,624,3,15190,trainPhase
19,2,B7,b,b,True,1114,3,15190,trainPhase
20,2,B10,b,b,True,728,3,15190,trainPhase
21,2,A3,a,a,True,1062,3,15190,trainPhase
22,2,A6,a,a,True,1631,3,15190,trainPhase
23,2,A2,a,a,True,851,3,15190,trainPhase
0,3,B3,b,b,True,1022,3,15190,trainPhase
1,3,B2,b,b,True,606,3,15190,trainPhase
2,3,A11,a,b,False,1173,3,15190,trainPhase
3,3,A1,a,a,True,1648,3,15190,trainPhase
4,3,B6,b,b,True,853,3,15190,trainPhase
5,3,A2,a,a,True,929,3,15190,trainPhase
6,3,B1,b,b,True,791,3,15190,trainPhase
7,3,B7,b,b,True,797,3,15190,trainPhase
8,3,B10,b,b,True,678,3,15190,trainPhase
9,3,A0,a,a,True,840,3,15190,trainPhase
10,3,B8,b,b,True,759,3,15190,trainPhase
11,3,A3,a,a,True,898,3,15190,trainPhase
12,3,B11,b,b,True,860,3,15190,trainPhase
13,3,A8,a,b,False,1697,3,15190,trainPhase
14,3,B9,b,b,True,877,3,15190,trainPhase
15,3,A6,a,a,True,1006,3,15190,trainPhase
16,3,A4,a,a,True,998,3,15190,trainPhase
17,3,A5,a,a,True,967,3,15190,trainPhase
18,3,A10,a,b,False,1128,3,15190,trainPhase
19,3,B0,b,b,True,591,3,15190,trainPhase
20,3,A7,a,a,True,1122,3,15190,trainPhase
21,3,A9,a,a,True,1389,3,15190,trainPhase
22,3,B5,b,a,False,1316,3,15190,trainPhase
23,3,B4,b,b,True,1346,3,15190,trainPhase
0,4,B11,b,b,True,723,3,15190,trainPhase
1,4,A9,a,b,False,828,3,15190,trainPhase
2,4,B2,b,a,False,1328,3,15190,trainPhase
3,4,A6,a,a,True,1400,3,15190,trainPhase
4,4,A11,a,a,True,1807,3,15190,trainPhase
5,4,B1,b,a,False,988,3,15190,trainPhase
6,4,B3,b,b,True,1912,3,15190,trainPhase
7,4,A4,a,a,True,974,3,15190,trainPhase
8,4,A3,a,a,True,824,3,15190,trainPhase
9,4,A10,a,b,False,878,3,15190,trainPhase
10,4,B8,b,b,True,865,3,15190,trainPhase
11,4,A7,a,a,True,889,3,15190,trainPhase
12,4,B4,b,b,True,1635,3,15190,trainPhase
13,4,B9,b,b,True,646,3,15190,trainPhase
14,4,B7,b,b,True,677,3,15190,trainPhase
15,4,B6,b,b,True,714,3,15190,trainPhase
16,4,A8,a,a,True,1365,3,15190,trainPhase
17,4,B10,b,b,True,741,3,15190,trainPhase
18,4,A1,a,a,True,838,3,15190,trainPhase
19,4,A5,a,a,True,943,3,15190,trainPhase
20,4,B5,b,b,True,1040,3,15190,trainPhase
21,4,A2,a,a,True,1091,3,15190,trainPhase
22,4,A0,a,a,True,1083,3,15190,trainPhase
23,4,B0,b,b,True,843,3,15190,trainPhase
0,5,B8,b,b,True,859,3,15190,trainPhase
1,5,B2,b,b,True,1104,3,15190,trainPhase
0,0,A0,a,a,True,3461,3,15208,trainPhase
1,0,A7,a,a,True,2524,3,15208,trainPhase
2,0,A10,a,b,False,1890,3,15208,trainPhase
3,0,B6,b,a,False,1572,3,15208,trainPhase
4,0,B5,b,a,False,4662,3,15208,trainPhase
5,0,B9,b,b,True,1750,3,15208,trainPhase
6,0,A5,a,a,True,2679,3,15208,trainPhase
7,0,B3,b,b,True,2493,3,15208,trainPhase
8,0,A9,a,a,True,2381,3,15208,trainPhase
9,0,B1,b,b,True,2160,3,15208,trainPhase
10,0,A3,a,a,True,2127,3,15208,trainPhase
11,0,A6,a,a,True,1400,3,15208,trainPhase
12,0,A1,a,a,True,1893,3,15208,trainPhase
13,0,B11,b,b,True,1279,3,15208,trainPhase
14,0,A8,a,a,True,1354,3,15208,trainPhase
15,0,B7,b,b,True,1493,3,15208,trainPhase
16,0,B10,b,b,True,1380,3,15208,trainPhase
17,0,A2,a,a,True,1394,3,15208,trainPhase
18,0,B0,b,b,True,3707,3,15208,trainPhase
19,0,B4,b,b,True,1267,3,15208,trainPhase
20,0,A11,a,b,False,1276,3,15208,trainPhase
21,0,B8,b,b,True,1950,3,15208,trainPhase
22,0,A4,a,a,True,8401,3,15208,trainPhase
23,0,B2,b,b,True,1368,3,15208,trainPhase
0,1,B8,b,b,True,1296,3,15208,trainPhase
1,1,A7,a,a,True,1431,3,15208,trainPhase
2,1,B11,b,b,True,1328,3,15208,trainPhase
3,1,B4,b,b,True,1343,3,15208,trainPhase
4,1,A0,a,a,True,1086,3,15208,trainPhase
5,1,A3,a,a,True,1501,3,15208,trainPhase
6,1,B2,b,b,True,2005,3,15208,trainPhase
7,1,A6,a,a,True,1062,3,15208,trainPhase
8,1,A5,a,b,False,2885,3,15208,trainPhase
9,1,B3,b,b,True,1186,3,15208,trainPhase
10,1,A8,a,a,True,1422,3,15208,trainPhase
11,1,B5,b,b,True,1774,3,15208,trainPhase
12,1,A11,a,b,False,1206,3,15208,trainPhase
13,1,A9,a,a,True,1243,3,15208,trainPhase
14,1,B1,b,a,False,1342,3,15208,trainPhase
15,1,B0,b,a,False,1510,3,15208,trainPhase
16,1,B9,b,b,True,1648,3,15208,trainPhase
17,1,B6,b,b,True,2388,3,15208,trainPhase
18,1,B7,b,b,True,1633,3,15208,trainPhase
19,1,A1,a,a,True,1115,3,15208,trainPhase
20,1,A2,a,a,True,2454,3,15208,trainPhase
21,1,A4,a,b,False,2862,3,15208,trainPhase
22,1,A10,a,a,True,1148,3,15208,trainPhase
23,1,B10,b,b,True,1166,3,15208,trainPhase
0,2,B4,b,b,True,1038,3,15208,trainPhase
1,2,B6,b,a,False,1813,3,15208,trainPhase
2,2,B2,b,b,True,1605,3,15208,trainPhase
3,2,B9,b,b,True,1114,3,15208,trainPhase
4,2,A11,a,b,False,1661,3,15208,trainPhase
5,2,B7,b,a,False,1111,3,15208,trainPhase
6,2,A6,a,a,True,1086,3,15208,trainPhase
7,2,A8,a,a,True,1245,3,15208,trainPhase
8,2,B5,b,b,True,1069,3,15208,trainPhase
9,2,B11,b,b,True,901,3,15208,trainPhase
