trial,block,stimId,category,response,accuracy,rt,condition,id,phase
0,0,B1,b,b,TRUE,3364,1,16008,trainPhase
1,0,B4,b,b,TRUE,1567,1,16008,trainPhase
2,0,A4,a,b,FALSE,1254,1,16008,trainPhase
3,0,B5,b,a,FALSE,1914,1,16008,trainPhase
4,0,A1,a,a,TRUE,2259,1,16008,trainPhase
5,0,A2,a,a,TRUE,1281,1,16008,trainPhase
6,0,A6,a,b,FALSE,1019,1,16008,trainPhase
7,0,B3,b,a,FALSE,2655,1,16008,trainPhase
8,0,A3,a,a,TRUE,1395,1,16008,trainPhase
9,0,A5,a,b,FALSE,1120,1,16008,trainPhase
10,0,B6,b,a,FALSE,5666,1,16008,trainPhase
11,0,B2,b,b,TRUE,3268,1,16008,trainPhase
0,1,B4,b,b,TRUE,1478,1,16008,trainPhase
1,1,A1,a,a,TRUE,1994,1,16008,trainPhase
2,1,B2,b,a,FALSE,3588,1,16008,trainPhase
3,1,B6,b,a,FALSE,1371,1,16008,trainPhase
4,1,B1,b,b,TRUE,871,1,16008,trainPhase
5,1,A2,a,b,FALSE,1142,1,16008,trainPhase
6,1,A3,a,a,TRUE,1001,1,16008,trainPhase
7,1,A5,a,b,FALSE,1999,1,16008,trainPhase
8,1,A6,a,a,TRUE,2253,1,16008,trainPhase
9,1,B3,b,a,FALSE,1401,1,16008,trainPhase
10,1,B5,b,a,FALSE,5783,1,16008,trainPhase
11,1,A4,a,b,FALSE,1370,1,16008,trainPhase
0,2,B4,b,a,FALSE,5542,1,16008,trainPhase
1,2,B2,b,b,TRUE,1324,1,16008,trainPhase
2,2,A4,a,b,FALSE,1130,1,16008,trainPhase
3,2,A6,a,a,TRUE,992,1,16008,trainPhase
4,2,B5,b,a,FALSE,3555,1,16008,trainPhase
5,2,A2,a,a,TRUE,2709,1,16008,trainPhase
6,2,A1,a,a,TRUE,4946,1,16008,trainPhase
7,2,B3,b,a,FALSE,2484,1,16008,trainPhase
8,2,B1,b,b,TRUE,1302,1,16008,trainPhase
9,2,A5,a,b,FALSE,1448,1,16008,trainPhase
10,2,B6,b,a,FALSE,3536,1,16008,trainPhase
11,2,A3,a,a,TRUE,1660,1,16008,trainPhase
0,3,A3,a,b,FALSE,2455,1,16008,trainPhase
1,3,A6,a,b,FALSE,2443,1,16008,trainPhase
2,3,A5,a,a,TRUE,2194,1,16008,trainPhase
3,3,A1,a,b,FALSE,2197,1,16008,trainPhase
4,3,B3,b,a,FALSE,1055,1,16008,trainPhase
5,3,A2,a,a,TRUE,1148,1,16008,trainPhase
6,3,B4,b,b,TRUE,1041,1,16008,trainPhase
7,3,B1,b,b,TRUE,2748,1,16008,trainPhase
8,3,B2,b,b,TRUE,902,1,16008,trainPhase
9,3,B6,b,a,FALSE,2087,1,16008,trainPhase
10,3,B5,b,b,TRUE,1458,1,16008,trainPhase
11,3,A4,a,b,FALSE,822,1,16008,trainPhase
0,4,B2,b,b,TRUE,1605,1,16008,trainPhase
1,4,B6,b,a,FALSE,1176,1,16008,trainPhase
2,4,A4,a,a,TRUE,1695,1,16008,trainPhase
3,4,A6,a,a,TRUE,1015,1,16008,trainPhase
4,4,A1,a,b,FALSE,3937,1,16008,trainPhase
5,4,B1,b,b,TRUE,1432,1,16008,trainPhase
6,4,A3,a,a,TRUE,933,1,16008,trainPhase
7,4,B5,b,a,FALSE,2163,1,16008,trainPhase
8,4,A5,a,a,TRUE,1322,1,16008,trainPhase
9,4,A2,a,a,TRUE,1175,1,16008,trainPhase
10,4,B3,b,a,FALSE,1311,1,16008,trainPhase
11,4,B4,b,a,FALSE,1575,1,16008,trainPhase
0,5,B2,b,b,TRUE,1438,1,16008,trainPhase
1,5,A4,a,b,FALSE,640,1,16008,trainPhase
2,5,B1,b,b,TRUE,1844,1,16008,trainPhase
3,5,A5,a,a,TRUE,1042,1,16008,trainPhase
4,5,A2,a,a,TRUE,1160,1,16008,trainPhase
5,5,A3,a,a,TRUE,688,1,16008,trainPhase
6,5,B6,b,b,TRUE,1530,1,16008,trainPhase
7,5,B3,b,a,FALSE,1320,1,16008,trainPhase
8,5,A1,a,b,FALSE,7549,1,16008,trainPhase
9,5,A6,a,b,FALSE,1797,1,16008,trainPhase
10,5,B4,b,b,TRUE,1639,1,16008,trainPhase
11,5,B5,b,a,FALSE,3234,1,16008,trainPhase
0,6,A1,a,b,FALSE,1393,1,16008,trainPhase
1,6,A5,a,a,TRUE,1839,1,16008,trainPhase
2,6,B4,b,a,FALSE,1884,1,16008,trainPhase
3,6,A3,a,a,TRUE,967,1,16008,trainPhase
4,6,A2,a,a,TRUE,2370,1,16008,trainPhase
5,6,B5,b,b,TRUE,1346,1,16008,trainPhase
6,6,B3,b,a,FALSE,1670,1,16008,trainPhase
7,6,B6,b,b,TRUE,1289,1,16008,trainPhase
8,6,B1,b,b,TRUE,1309,1,16008,trainPhase
9,6,B2,b,b,TRUE,1407,1,16008,trainPhase
10,6,A6,a,b,FALSE,1738,1,16008,trainPhase
11,6,A4,a,a,TRUE,7413,1,16008,trainPhase
0,7,A6,a,b,FALSE,1921,1,16008,trainPhase
1,7,A5,a,a,TRUE,1270,1,16008,trainPhase
2,7,B1,b,b,TRUE,1470,1,16008,trainPhase
3,7,B3,b,a,FALSE,2141,1,16008,trainPhase
4,7,B4,b,a,FALSE,2573,1,16008,trainPhase
5,7,A4,a,a,TRUE,2186,1,16008,trainPhase
6,7,A1,a,a,TRUE,2399,1,16008,trainPhase
7,7,B6,b,a,FALSE,1942,1,16008,trainPhase
8,7,B5,b,b,TRUE,1771,1,16008,trainPhase
9,7,A3,a,a,TRUE,1072,1,16008,trainPhase
10,7,A2,a,a,TRUE,3574,1,16008,trainPhase
11,7,B2,b,b,TRUE,894,1,16008,trainPhase
0,8,B1,b,b,TRUE,1031,1,16008,trainPhase
1,8,A3,a,a,TRUE,1187,1,16008,trainPhase
2,8,A4,a,b,FALSE,6832,1,16008,trainPhase
3,8,B6,b,a,FALSE,2767,1,16008,trainPhase
4,8,B5,b,b,TRUE,2361,1,16008,trainPhase
5,8,B2,b,b,TRUE,1182,1,16008,trainPhase
6,8,A2,a,a,TRUE,887,1,16008,trainPhase
7,8,B3,b,b,TRUE,799,1,16008,trainPhase
8,8,A6,a,b,FALSE,1467,1,16008,trainPhase
9,8,A1,a,a,TRUE,1134,1,16008,trainPhase
10,8,A5,a,a,TRUE,751,1,16008,trainPhase
11,8,B4,b,a,FALSE,5736,1,16008,trainPhase
0,9,A2,a,a,TRUE,1343,1,16008,trainPhase
1,9,B4,b,b,TRUE,1126,1,16008,trainPhase
2,9,B6,b,a,FALSE,1824,1,16008,trainPhase
3,9,A3,a,a,TRUE,1579,1,16008,trainPhase
4,9,B2,b,b,TRUE,1108,1,16008,trainPhase
5,9,B1,b,b,TRUE,892,1,16008,trainPhase
6,9,B5,b,b,TRUE,1030,1,16008,trainPhase
7,9,B3,b,a,FALSE,1640,1,16008,trainPhase
8,9,A6,a,a,TRUE,1047,1,16008,trainPhase
9,9,A5,a,b,FALSE,1013,1,16008,trainPhase
10,9,A1,a,a,TRUE,1721,1,16008,trainPhase
11,9,A4,a,b,FALSE,1270,1,16008,trainPhase
0,10,B3,b,a,FALSE,1519,1,16008,trainPhase
1,10,A6,a,b,FALSE,1756,1,16008,trainPhase
2,10,A3,a,a,TRUE,877,1,16008,trainPhase
3,10,A2,a,a,TRUE,1393,1,16008,trainPhase
4,10,B6,b,a,FALSE,1131,1,16008,trainPhase
5,10,B2,b,b,TRUE,1440,1,16008,trainPhase
6,10,A5,a,a,TRUE,3217,1,16008,trainPhase
7,10,A4,a,a,TRUE,2021,1,16008,trainPhase
8,10,B5,b,a,FALSE,1460,1,16008,trainPhase
9,10,B1,b,b,TRUE,1842,1,16008,trainPhase
10,10,A1,a,b,FALSE,1427,1,16008,trainPhase
11,10,B4,b,b,TRUE,947,1,16008,trainPhase
0,11,A6,a,a,TRUE,2179,1,16008,trainPhase
1,11,B6,b,b,TRUE,1155,1,16008,trainPhase
2,11,A5,a,a,TRUE,1420,1,16008,trainPhase
3,11,B2,b,b,TRUE,1582,1,16008,trainPhase
4,11,B3,b,a,FALSE,1205,1,16008,trainPhase
5,11,A1,a,a,TRUE,3777,1,16008,trainPhase
6,11,A3,a,a,TRUE,1052,1,16008,trainPhase
7,11,A4,a,a,TRUE,2538,1,16008,trainPhase
8,11,B4,b,b,TRUE,1638,1,16008,trainPhase
9,11,B5,b,b,TRUE,2034,1,16008,trainPhase
10,11,A2,a,a,TRUE,1211,1,16008,trainPhase
11,11,B1,b,b,TRUE,1834,1,16008,trainPhase
0,12,B6,b,a,FALSE,1667,1,16008,trainPhase
1,12,B2,b,b,TRUE,5076,1,16008,trainPhase
2,12,A5,a,b,FALSE,1405,1,16008,trainPhase
3,12,A2,a,a,TRUE,1412,1,16008,trainPhase
4,12,A6,a,a,TRUE,1555,1,16008,trainPhase
5,12,A3,a,a,TRUE,782,1,16008,trainPhase
6,12,B4,b,b,TRUE,1377,1,16008,trainPhase
7,12,B3,b,a,FALSE,1060,1,16008,trainPhase
8,12,B5,b,b,TRUE,1405,1,16008,trainPhase
9,12,A4,a,b,FALSE,1443,1,16008,trainPhase
10,12,B1,b,a,FALSE,1639,1,16008,trainPhase
11,12,A1,a,a,TRUE,3102,1,16008,trainPhase
0,13,A5,a,a,TRUE,1273,1,16008,trainPhase
1,13,B6,b,b,TRUE,1380,1,16008,trainPhase
2,13,B3,b,a,FALSE,1247,1,16008,trainPhase
3,13,A2,a,a,TRUE,1420,1,16008,trainPhase
4,13,A6,a,a,TRUE,1466,1,16008,trainPhase
5,13,B5,b,b,TRUE,2966,1,16008,trainPhase
6,13,A1,a,a,TRUE,1632,1,16008,trainPhase
7,13,B2,b,b,TRUE,1088,1,16008,trainPhase
8,13,A4,a,b,FALSE,1156,1,16008,trainPhase
9,13,B1,b,b,TRUE,1185,1,16008,trainPhase
10,13,B4,b,b,TRUE,1019,1,16008,trainPhase
11,13,A3,a,a,TRUE,775,1,16008,trainPhase
0,14,B1,b,b,TRUE,1271,1,16008,trainPhase
1,14,B3,b,a,FALSE,2672,1,16008,trainPhase
2,14,B6,b,b,TRUE,701,1,16008,trainPhase
3,14,A6,a,a,TRUE,1289,1,16008,trainPhase
4,14,A2,a,a,TRUE,1583,1,16008,trainPhase
5,14,B4,b,b,TRUE,799,1,16008,trainPhase
6,14,A1,a,a,TRUE,1927,1,16008,trainPhase
7,14,B2,b,b,TRUE,606,1,16008,trainPhase
8,14,A3,a,a,TRUE,894,1,16008,trainPhase
9,14,A5,a,a,TRUE,1843,1,16008,trainPhase
10,14,A4,a,a,TRUE,1597,1,16008,trainPhase
11,14,B5,b,a,FALSE,2108,1,16008,trainPhase
0,0,B5,b,a,FALSE,3017,1,16017,trainPhase
1,0,B6,b,b,TRUE,2963,1,16017,trainPhase
2,0,A4,a,b,FALSE,1483,1,16017,trainPhase
3,0,B4,b,b,TRUE,4179,1,16017,trainPhase
4,0,A3,a,a,TRUE,1993,1,16017,trainPhase
5,0,A2,a,a,TRUE,1688,1,16017,trainPhase
6,0,A6,a,b,FALSE,1713,1,16017,trainPhase
7,0,B1,b,b,TRUE,3141,1,16017,trainPhase
8,0,A5,a,a,TRUE,3229,1,16017,trainPhase
9,0,A1,a,b,FALSE,2284,1,16017,trainPhase
10,0,B2,b,b,TRUE,1410,1,16017,trainPhase
11,0,B3,b,a,FALSE,3332,1,16017,trainPhase
0,1,B3,b,a,FALSE,5680,1,16017,trainPhase
1,1,B5,b,b,TRUE,1611,1,16017,trainPhase
2,1,A1,a,a,TRUE,3665,1,16017,trainPhase
3,1,B6,b,a,FALSE,5181,1,16017,trainPhase
4,1,A4,a,b,FALSE,2473,1,16017,trainPhase
5,1,A5,a,a,TRUE,5096,1,16017,trainPhase
6,1,A2,a,a,TRUE,1563,1,16017,trainPhase
7,1,B2,b,b,TRUE,2098,1,16017,trainPhase
8,1,A3,a,a,TRUE,1503,1,16017,trainPhase
9,1,B1,b,b,TRUE,3409,1,16017,trainPhase
10,1,B4,b,b,TRUE,1668,1,16017,trainPhase
11,1,A6,a,a,TRUE,1593,1,16017,trainPhase
0,2,A6,a,a,TRUE,3671,1,16017,trainPhase
1,2,B3,b,a,FALSE,2755,1,16017,trainPhase
2,2,B1,b,b,TRUE,1337,1,16017,trainPhase
3,2,A4,a,b,FALSE,5498,1,16017,trainPhase
4,2,B5,b,b,TRUE,3765,1,16017,trainPhase
5,2,B6,b,a,FALSE,2507,1,16017,trainPhase
6,2,A1,a,a,TRUE,1988,1,16017,trainPhase
7,2,A3,a,a,TRUE,1369,1,16017,trainPhase
8,2,A2,a,a,TRUE,3660,1,16017,trainPhase
9,2,B4,b,b,TRUE,1545,1,16017,trainPhase
10,2,B2,b,b,TRUE,2404,1,16017,trainPhase
11,2,A5,a,a,TRUE,3077,1,16017,trainPhase
0,3,A5,a,a,TRUE,1502,1,16017,trainPhase
1,3,B4,b,b,TRUE,1930,1,16017,trainPhase
2,3,B1,b,b,TRUE,2258,1,16017,trainPhase
3,3,A1,a,b,FALSE,3898,1,16017,trainPhase
4,3,A2,a,a,TRUE,1414,1,16017,trainPhase
5,3,A6,a,a,TRUE,1405,1,16017,trainPhase
6,3,B3,b,a,FALSE,1321,1,16017,trainPhase
7,3,A4,a,b,FALSE,6676,1,16017,trainPhase
8,3,B6,b,b,TRUE,7117,1,16017,trainPhase
9,3,B5,b,b,TRUE,3127,1,16017,trainPhase
10,3,B2,b,b,TRUE,1448,1,16017,trainPhase
11,3,A3,a,a,TRUE,1320,1,16017,trainPhase
0,4,A4,a,b,FALSE,3752,1,16017,trainPhase
1,4,B1,b,b,TRUE,2361,1,16017,trainPhase
2,4,A6,a,a,TRUE,2327,1,16017,trainPhase
3,4,A5,a,a,TRUE,1473,1,16017,trainPhase
4,4,B2,b,b,TRUE,1838,1,16017,trainPhase
5,4,A1,a,a,TRUE,1874,1,16017,trainPhase
6,4,B6,b,a,FALSE,2656,1,16017,trainPhase
7,4,A2,a,b,FALSE,7980,1,16017,trainPhase
8,4,B5,b,b,TRUE,5315,1,16017,trainPhase
9,4,B3,b,a,FALSE,1992,1,16017,trainPhase
10,4,B4,b,b,TRUE,2359,1,16017,trainPhase
11,4,A3,a,a,TRUE,1266,1,16017,trainPhase
0,5,B5,b,b,TRUE,2082,1,16017,trainPhase
1,5,A1,a,a,TRUE,2118,1,16017,trainPhase
2,5,B6,b,b,TRUE,7763,1,16017,trainPhase
3,5,A6,a,a,TRUE,1400,1,16017,trainPhase
4,5,B3,b,a,FALSE,2251,1,16017,trainPhase
5,5,B4,b,b,TRUE,2579,1,16017,trainPhase
6,5,A3,a,a,TRUE,1309,1,16017,trainPhase
7,5,A5,a,a,TRUE,1358,1,16017,trainPhase
8,5,B1,b,b,TRUE,1256,1,16017,trainPhase
9,5,B2,b,b,TRUE,1569,1,16017,trainPhase
10,5,A2,a,a,TRUE,1428,1,16017,trainPhase
11,5,A4,a,b,FALSE,1604,1,16017,trainPhase
0,6,B3,b,a,FALSE,2793,1,16017,trainPhase
1,6,B4,b,b,TRUE,2476,1,16017,trainPhase
2,6,A1,a,a,TRUE,1475,1,16017,trainPhase
3,6,A6,a,a,TRUE,3487,1,16017,trainPhase
4,6,B2,b,b,TRUE,2830,1,16017,trainPhase
5,6,B6,b,b,TRUE,7977,1,16017,trainPhase
6,6,B1,b,b,TRUE,1370,1,16017,trainPhase
7,6,A5,a,b,FALSE,4022,1,16017,trainPhase
8,6,A2,a,a,TRUE,1125,1,16017,trainPhase
9,6,A3,a,a,TRUE,1184,1,16017,trainPhase
10,6,A4,a,a,TRUE,1696,1,16017,trainPhase
11,6,B5,b,b,TRUE,3359,1,16017,trainPhase
0,7,A4,a,a,TRUE,5085,1,16017,trainPhase
1,7,B1,b,b,TRUE,2118,1,16017,trainPhase
2,7,A2,a,a,TRUE,1531,1,16017,trainPhase
3,7,A5,a,a,TRUE,1709,1,16017,trainPhase
4,7,B3,b,a,FALSE,4090,1,16017,trainPhase
5,7,A6,a,b,FALSE,1758,1,16017,trainPhase
6,7,B2,b,b,TRUE,2616,1,16017,trainPhase
7,7,A1,a,a,TRUE,1542,1,16017,trainPhase
8,7,A3,a,a,TRUE,1113,1,16017,trainPhase
9,7,B6,b,b,TRUE,1480,1,16017,trainPhase
10,7,B5,b,b,TRUE,1125,1,16017,trainPhase
11,7,B4,b,b,TRUE,1047,1,16017,trainPhase
0,8,B4,b,b,TRUE,1026,1,16017,trainPhase
1,8,A4,a,b,FALSE,1870,1,16017,trainPhase
2,8,B6,b,b,TRUE,1437,1,16017,trainPhase
3,8,A6,a,b,FALSE,1294,1,16017,trainPhase
4,8,B3,b,a,FALSE,1267,1,16017,trainPhase
5,8,A3,a,a,TRUE,2312,1,16017,trainPhase
6,8,B5,b,b,TRUE,1803,1,16017,trainPhase
7,8,A5,a,a,TRUE,1541,1,16017,trainPhase
8,8,B1,b,b,TRUE,1890,1,16017,trainPhase
9,8,B2,b,b,TRUE,2378,1,16017,trainPhase
10,8,A1,a,a,TRUE,3004,1,16017,trainPhase
11,8,A2,a,a,TRUE,1837,1,16017,trainPhase
0,9,A4,a,b,FALSE,1401,1,16017,trainPhase
1,9,B1,b,b,TRUE,1423,1,16017,trainPhase
2,9,B3,b,b,TRUE,5891,1,16017,trainPhase
3,9,A5,a,b,FALSE,1946,1,16017,trainPhase
4,9,A6,a,a,TRUE,2516,1,16017,trainPhase
5,9,B2,b,b,TRUE,1500,1,16017,trainPhase
6,9,B6,b,b,TRUE,2317,1,16017,trainPhase
7,9,A1,a,a,TRUE,2005,1,16017,trainPhase
8,9,A3,a,a,TRUE,1950,1,16017,trainPhase
9,9,A2,a,a,TRUE,1501,1,16017,trainPhase
10,9,B5,b,b,TRUE,3263,1,16017,trainPhase
11,9,B4,b,b,TRUE,1042,1,16017,trainPhase
0,10,A2,a,a,TRUE,1570,1,16017,trainPhase
1,10,A6,a,a,TRUE,3164,1,16017,trainPhase
2,10,B3,b,a,FALSE,1401,1,16017,trainPhase
3,10,B1,b,b,TRUE,1605,1,16017,trainPhase
4,10,A4,a,b,FALSE,2744,1,16017,trainPhase
5,10,B6,b,b,TRUE,1367,1,16017,trainPhase
6,10,A3,a,a,TRUE,885,1,16017,trainPhase
7,10,B2,b,b,TRUE,2886,1,16017,trainPhase
8,10,B4,b,b,TRUE,1372,1,16017,trainPhase
9,10,A5,a,b,FALSE,1023,1,16017,trainPhase
10,10,A1,a,a,TRUE,887,1,16017,trainPhase
11,10,B5,b,b,TRUE,1713,1,16017,trainPhase
0,11,B4,b,b,TRUE,1533,1,16017,trainPhase
1,11,B1,b,a,FALSE,2775,1,16017,trainPhase
2,11,B6,b,b,TRUE,1168,1,16017,trainPhase
3,11,A4,a,b,FALSE,1144,1,16017,trainPhase
4,11,B2,b,b,TRUE,1993,1,16017,trainPhase
5,11,A3,a,a,TRUE,923,1,16017,trainPhase
6,11,B5,b,b,TRUE,1999,1,16017,trainPhase
7,11,A6,a,b,FALSE,2239,1,16017,trainPhase
8,11,A2,a,a,TRUE,1554,1,16017,trainPhase
9,11,A5,a,a,TRUE,3312,1,16017,trainPhase
10,11,B3,b,b,TRUE,3143,1,16017,trainPhase
11,11,A1,a,a,TRUE,5408,1,16017,trainPhase
0,12,A3,a,a,TRUE,940,1,16017,trainPhase
1,12,B2,b,b,TRUE,1364,1,16017,trainPhase
2,12,A2,a,a,TRUE,4185,1,16017,trainPhase
3,12,B3,b,a,FALSE,2033,1,16017,trainPhase
4,12,A6,a,a,TRUE,3402,1,16017,trainPhase
5,12,B4,b,b,TRUE,1652,1,16017,trainPhase
6,12,B1,b,a,FALSE,2864,1,16017,trainPhase
7,12,A1,a,a,TRUE,3961,1,16017,trainPhase
8,12,B6,b,b,TRUE,3262,1,16017,trainPhase
9,12,A5,a,a,TRUE,2433,1,16017,trainPhase
10,12,A4,a,b,FALSE,1738,1,16017,trainPhase
11,12,B5,b,b,TRUE,1662,1,16017,trainPhase
0,13,B3,b,a,FALSE,1651,1,16017,trainPhase
1,13,A3,a,a,TRUE,1192,1,16017,trainPhase
2,13,B6,b,b,TRUE,1461,1,16017,trainPhase
3,13,A6,a,a,TRUE,1328,1,16017,trainPhase
4,13,A2,a,a,TRUE,1242,1,16017,trainPhase
5,13,B1,b,b,TRUE,3053,1,16017,trainPhase
6,13,B5,b,b,TRUE,3035,1,16017,trainPhase
7,13,A5,a,a,TRUE,766,1,16017,trainPhase
8,13,A1,a,a,TRUE,1116,1,16017,trainPhase
9,13,B4,b,b,TRUE,1309,1,16017,trainPhase
10,13,B2,b,b,TRUE,1296,1,16017,trainPhase
11,13,A4,a,b,FALSE,1499,1,16017,trainPhase
0,14,A5,a,a,TRUE,807,1,16017,trainPhase
1,14,A1,a,a,TRUE,749,1,16017,trainPhase
2,14,B4,b,b,TRUE,1268,1,16017,trainPhase
3,14,B6,b,b,TRUE,2276,1,16017,trainPhase
4,14,B2,b,b,TRUE,861,1,16017,trainPhase
5,14,B3,b,a,FALSE,3064,1,16017,trainPhase
6,14,A6,a,a,TRUE,2217,1,16017,trainPhase
7,14,A3,a,a,TRUE,916,1,16017,trainPhase
8,14,B1,b,b,TRUE,1910,1,16017,trainPhase
9,14,A2,a,a,TRUE,1071,1,16017,trainPhase
10,14,A4,a,b,FALSE,2205,1,16017,trainPhase
11,14,B5,b,b,TRUE,1653,1,16017,trainPhase
0,0,A3,a,a,TRUE,2419,1,16018,trainPhase
1,0,A4,a,a,TRUE,2621,1,16018,trainPhase
2,0,A2,a,a,TRUE,1931,1,16018,trainPhase
3,0,B4,b,a,FALSE,1505,1,16018,trainPhase
4,0,B6,b,b,TRUE,1682,1,16018,trainPhase
5,0,A5,a,a,TRUE,920,1,16018,trainPhase
6,0,B5,b,b,TRUE,1000,1,16018,trainPhase
7,0,B2,b,a,FALSE,1206,1,16018,trainPhase
8,0,B1,b,a,FALSE,1349,1,16018,trainPhase
9,0,A1,a,a,TRUE,1262,1,16018,trainPhase
10,0,B3,b,b,TRUE,1906,1,16018,trainPhase
11,0,A6,a,b,FALSE,1272,1,16018,trainPhase
0,1,A3,a,a,TRUE,1351,1,16018,trainPhase
1,1,A1,a,a,TRUE,3896,1,16018,trainPhase
2,1,A2,a,a,TRUE,879,1,16018,trainPhase
3,1,A5,a,b,FALSE,695,1,16018,trainPhase
4,1,B3,b,a,FALSE,1217,1,16018,trainPhase
5,1,B4,b,b,TRUE,1132,1,16018,trainPhase
6,1,A6,a,b,FALSE,777,1,16018,trainPhase
7,1,B2,b,b,TRUE,1968,1,16018,trainPhase
8,1,A4,a,a,TRUE,840,1,16018,trainPhase
9,1,B6,b,a,FALSE,810,1,16018,trainPhase
10,1,B1,b,a,FALSE,3241,1,16018,trainPhase
11,1,B5,b,b,TRUE,1648,1,16018,trainPhase
0,2,B1,b,a,FALSE,1672,1,16018,trainPhase
1,2,A5,a,a,TRUE,1225,1,16018,trainPhase
2,2,B4,b,b,TRUE,817,1,16018,trainPhase
3,2,A1,a,a,TRUE,807,1,16018,trainPhase
4,2,A4,a,b,FALSE,986,1,16018,trainPhase
5,2,A6,a,a,TRUE,1668,1,16018,trainPhase
6,2,B5,b,b,TRUE,767,1,16018,trainPhase
7,2,A2,a,a,TRUE,865,1,16018,trainPhase
8,2,B6,b,b,TRUE,798,1,16018,trainPhase
9,2,B2,b,b,TRUE,2687,1,16018,trainPhase
10,2,B3,b,a,FALSE,968,1,16018,trainPhase
11,2,A3,a,a,TRUE,3808,1,16018,trainPhase
0,3,B5,b,b,TRUE,991,1,16018,trainPhase
1,3,A2,a,a,TRUE,815,1,16018,trainPhase
2,3,B2,b,b,TRUE,869,1,16018,trainPhase
3,3,B3,b,a,FALSE,926,1,16018,trainPhase
4,3,A3,a,a,TRUE,866,1,16018,trainPhase
5,3,A4,a,b,FALSE,804,1,16018,trainPhase
6,3,B1,b,b,TRUE,2170,1,16018,trainPhase
7,3,A1,a,a,TRUE,3467,1,16018,trainPhase
8,3,A6,a,b,FALSE,3229,1,16018,trainPhase
9,3,A5,a,a,TRUE,1121,1,16018,trainPhase
10,3,B6,b,b,TRUE,1244,1,16018,trainPhase
11,3,B4,b,b,TRUE,1716,1,16018,trainPhase
0,4,A4,a,a,TRUE,1356,1,16018,trainPhase
1,4,A3,a,a,TRUE,1151,1,16018,trainPhase
2,4,A6,a,b,FALSE,1670,1,16018,trainPhase
3,4,B6,b,b,TRUE,1133,1,16018,trainPhase
4,4,B1,b,a,FALSE,1004,1,16018,trainPhase
5,4,A1,a,a,TRUE,1198,1,16018,trainPhase
6,4,A2,a,a,TRUE,2149,1,16018,trainPhase
7,4,B3,b,b,TRUE,1631,1,16018,trainPhase
8,4,B2,b,a,FALSE,1118,1,16018,trainPhase
9,4,B4,b,b,TRUE,1382,1,16018,trainPhase
10,4,B5,b,b,TRUE,886,1,16018,trainPhase
11,4,A5,a,a,TRUE,1055,1,16018,trainPhase
0,5,B1,b,a,FALSE,867,1,16018,trainPhase
1,5,B3,b,b,TRUE,1005,1,16018,trainPhase
2,5,A2,a,a,TRUE,607,1,16018,trainPhase
3,5,A3,a,a,TRUE,1031,1,16018,trainPhase
4,5,A4,a,b,FALSE,853,1,16018,trainPhase
5,5,B4,b,b,TRUE,1492,1,16018,trainPhase
6,5,B5,b,b,TRUE,847,1,16018,trainPhase
7,5,B6,b,b,TRUE,1079,1,16018,trainPhase
8,5,A1,a,a,TRUE,735,1,16018,trainPhase
9,5,A5,a,a,TRUE,872,1,16018,trainPhase
10,5,A6,a,b,FALSE,904,1,16018,trainPhase
11,5,B2,b,b,TRUE,1517,1,16018,trainPhase
0,6,A4,a,b,FALSE,990,1,16018,trainPhase
1,6,B3,b,a,FALSE,722,1,16018,trainPhase
2,6,B5,b,b,TRUE,808,1,16018,trainPhase
3,6,A1,a,a,TRUE,496,1,16018,trainPhase
4,6,A6,a,b,FALSE,1153,1,16018,trainPhase
5,6,B4,b,b,TRUE,1480,1,16018,trainPhase
6,6,B6,b,b,TRUE,3793,1,16018,trainPhase
7,6,A3,a,a,TRUE,858,1,16018,trainPhase
8,6,A2,a,a,TRUE,766,1,16018,trainPhase
9,6,A5,a,a,TRUE,885,1,16018,trainPhase
10,6,B2,b,b,TRUE,831,1,16018,trainPhase
11,6,B1,b,b,TRUE,1824,1,16018,trainPhase
0,7,B6,b,b,TRUE,1159,1,16018,trainPhase
1,7,A6,a,a,TRUE,1773,1,16018,trainPhase
2,7,B5,b,b,TRUE,983,1,16018,trainPhase
3,7,B4,b,b,TRUE,1210,1,16018,trainPhase
4,7,A2,a,a,TRUE,1407,1,16018,trainPhase
5,7,B1,b,b,TRUE,1432,1,16018,trainPhase
6,7,B2,b,b,TRUE,798,1,16018,trainPhase
7,7,A4,a,b,FALSE,1513,1,16018,trainPhase
8,7,A1,a,a,TRUE,1376,1,16018,trainPhase
9,7,B3,b,a,FALSE,636,1,16018,trainPhase
10,7,A3,a,a,TRUE,1566,1,16018,trainPhase
11,7,A5,a,b,FALSE,829,1,16018,trainPhase
0,8,B6,b,b,TRUE,927,1,16018,trainPhase
1,8,A3,a,a,TRUE,2491,1,16018,trainPhase
2,8,A5,a,a,TRUE,735,1,16018,trainPhase
3,8,A2,a,a,TRUE,864,1,16018,trainPhase
4,8,A1,a,a,TRUE,744,1,16018,trainPhase
5,8,A4,a,b,FALSE,800,1,16018,trainPhase
6,8,B4,b,b,TRUE,791,1,16018,trainPhase
7,8,B1,b,b,TRUE,1838,1,16018,trainPhase
8,8,B2,b,b,TRUE,1108,1,16018,trainPhase
9,8,B5,b,b,TRUE,1069,1,16018,trainPhase
10,8,A6,a,a,TRUE,833,1,16018,trainPhase
11,8,B3,b,a,FALSE,733,1,16018,trainPhase
0,9,B6,b,b,TRUE,3783,1,16018,trainPhase
1,9,B4,b,b,TRUE,1018,1,16018,trainPhase
2,9,A4,a,a,TRUE,1933,1,16018,trainPhase
3,9,B2,b,a,FALSE,971,1,16018,trainPhase
4,9,B5,b,b,TRUE,1162,1,16018,trainPhase
5,9,A6,a,a,TRUE,589,1,16018,trainPhase
6,9,A2,a,a,TRUE,1016,1,16018,trainPhase
7,9,B1,b,a,FALSE,8032,1,16018,trainPhase
8,9,A3,a,a,TRUE,933,1,16018,trainPhase
9,9,A1,a,a,TRUE,863,1,16018,trainPhase
10,9,A5,a,b,FALSE,898,1,16018,trainPhase
11,9,B3,b,a,FALSE,875,1,16018,trainPhase
0,10,B1,b,b,TRUE,670,1,16018,trainPhase
1,10,B2,b,b,TRUE,784,1,16018,trainPhase
2,10,A4,a,b,FALSE,712,1,16018,trainPhase
3,10,A2,a,a,TRUE,599,1,16018,trainPhase
4,10,B4,b,b,TRUE,629,1,16018,trainPhase
5,10,B3,b,a,FALSE,501,1,16018,trainPhase
6,10,B5,b,b,TRUE,521,1,16018,trainPhase
7,10,A3,a,a,TRUE,924,1,16018,trainPhase
8,10,B6,b,b,TRUE,901,1,16018,trainPhase
9,10,A1,a,a,TRUE,689,1,16018,trainPhase
10,10,A5,a,a,TRUE,1310,1,16018,trainPhase
11,10,A6,a,b,FALSE,1369,1,16018,trainPhase
0,11,A5,a,a,TRUE,787,1,16018,trainPhase
1,11,B5,b,b,TRUE,1265,1,16018,trainPhase
2,11,A1,a,a,TRUE,637,1,16018,trainPhase
3,11,B1,b,b,TRUE,447,1,16018,trainPhase
4,11,A2,a,a,TRUE,898,1,16018,trainPhase
5,11,A6,a,b,FALSE,900,1,16018,trainPhase
6,11,B2,b,b,TRUE,1561,1,16018,trainPhase
7,11,B3,b,a,FALSE,727,1,16018,trainPhase
8,11,B4,b,b,TRUE,500,1,16018,trainPhase
9,11,A4,a,b,FALSE,724,1,16018,trainPhase
10,11,B6,b,b,TRUE,1145,1,16018,trainPhase
11,11,A3,a,a,TRUE,660,1,16018,trainPhase
0,12,B4,b,b,TRUE,852,1,16018,trainPhase
1,12,A6,a,a,TRUE,545,1,16018,trainPhase
2,12,A3,a,a,TRUE,1334,1,16018,trainPhase
3,12,B2,b,b,TRUE,1399,1,16018,trainPhase
4,12,A5,a,a,TRUE,1661,1,16018,trainPhase
5,12,A2,a,a,TRUE,1191,1,16018,trainPhase
6,12,B5,b,b,TRUE,942,1,16018,trainPhase
7,12,A1,a,a,TRUE,3103,1,16018,trainPhase
8,12,B3,b,a,FALSE,1541,1,16018,trainPhase
9,12,B6,b,b,TRUE,637,1,16018,trainPhase
10,12,A4,a,b,FALSE,620,1,16018,trainPhase
11,12,B1,b,a,FALSE,643,1,16018,trainPhase
0,13,B5,b,b,TRUE,924,1,16018,trainPhase
1,13,A5,a,a,TRUE,4215,1,16018,trainPhase
2,13,A4,a,b,FALSE,844,1,16018,trainPhase
3,13,A2,a,a,TRUE,840,1,16018,trainPhase
4,13,A6,a,b,FALSE,957,1,16018,trainPhase
5,13,B1,b,a,FALSE,508,1,16018,trainPhase
6,13,B4,b,b,TRUE,644,1,16018,trainPhase
7,13,A3,a,a,TRUE,5201,1,16018,trainPhase
8,13,A1,a,a,TRUE,2443,1,16018,trainPhase
9,13,B2,b,b,TRUE,600,1,16018,trainPhase
10,13,B3,b,b,TRUE,578,1,16018,trainPhase
11,13,B6,b,b,TRUE,1604,1,16018,trainPhase
0,14,B1,b,b,TRUE,1082,1,16018,trainPhase
1,14,A4,a,b,FALSE,918,1,16018,trainPhase
2,14,B3,b,a,FALSE,676,1,16018,trainPhase
3,14,A3,a,a,TRUE,934,1,16018,trainPhase
4,14,A6,a,b,FALSE,1294,1,16018,trainPhase
5,14,B2,b,a,FALSE,630,1,16018,trainPhase
6,14,B6,b,b,TRUE,478,1,16018,trainPhase
7,14,A1,a,a,TRUE,1264,1,16018,trainPhase
8,14,B5,b,b,TRUE,742,1,16018,trainPhase
9,14,B4,b,b,TRUE,775,1,16018,trainPhase
10,14,A2,a,a,TRUE,745,1,16018,trainPhase
11,14,A5,a,a,TRUE,758,1,16018,trainPhase
0,0,A5,a,a,TRUE,3298,1,16019,trainPhase
1,0,A3,a,a,TRUE,2230,1,16019,trainPhase
2,0,A6,a,a,TRUE,2415,1,16019,trainPhase
3,0,A4,a,b,FALSE,2975,1,16019,trainPhase
4,0,B6,b,a,FALSE,1157,1,16019,trainPhase
5,0,B4,b,b,TRUE,1679,1,16019,trainPhase
6,0,A1,a,a,TRUE,1243,1,16019,trainPhase
7,0,A2,a,a,TRUE,1225,1,16019,trainPhase
8,0,B2,b,b,TRUE,869,1,16019,trainPhase
9,0,B3,b,b,TRUE,1465,1,16019,trainPhase
10,0,B5,b,b,TRUE,1320,1,16019,trainPhase
11,0,B1,b,a,FALSE,1150,1,16019,trainPhase
0,1,B4,b,b,TRUE,1938,1,16019,trainPhase
1,1,B5,b,b,TRUE,1017,1,16019,trainPhase
2,1,A1,a,a,TRUE,1098,1,16019,trainPhase
3,1,A3,a,a,TRUE,1358,1,16019,trainPhase
4,1,A6,a,b,FALSE,1366,1,16019,trainPhase
5,1,A2,a,a,TRUE,3397,1,16019,trainPhase
6,1,A5,a,a,TRUE,2030,1,16019,trainPhase
7,1,B2,b,b,TRUE,1258,1,16019,trainPhase
8,1,B6,b,b,TRUE,1335,1,16019,trainPhase
9,1,B3,b,b,TRUE,2601,1,16019,trainPhase
10,1,B1,b,b,TRUE,1417,1,16019,trainPhase
11,1,A4,a,b,FALSE,1088,1,16019,trainPhase
0,2,A2,a,a,TRUE,4355,1,16019,trainPhase
1,2,B3,b,a,FALSE,2317,1,16019,trainPhase
2,2,B4,b,b,TRUE,2018,1,16019,trainPhase
3,2,B1,b,b,TRUE,4724,1,16019,trainPhase
4,2,A3,a,a,TRUE,2010,1,16019,trainPhase
5,2,B6,b,b,TRUE,3494,1,16019,trainPhase
6,2,A1,a,a,TRUE,1684,1,16019,trainPhase
7,2,A4,a,a,TRUE,3858,1,16019,trainPhase
8,2,B5,b,b,TRUE,1901,1,16019,trainPhase
9,2,B2,b,b,TRUE,2674,1,16019,trainPhase
10,2,A6,a,a,TRUE,2038,1,16019,trainPhase
11,2,A5,a,a,TRUE,3691,1,16019,trainPhase
0,3,A4,a,b,FALSE,3078,1,16019,trainPhase
1,3,B2,b,b,TRUE,3727,1,16019,trainPhase
2,3,B5,b,b,TRUE,2328,1,16019,trainPhase
3,3,B3,b,a,FALSE,1911,1,16019,trainPhase
4,3,B1,b,a,FALSE,4008,1,16019,trainPhase
5,3,A1,a,a,TRUE,1323,1,16019,trainPhase
6,3,A6,a,b,FALSE,2181,1,16019,trainPhase
7,3,A3,a,a,TRUE,1791,1,16019,trainPhase
8,3,A5,a,a,TRUE,1478,1,16019,trainPhase
9,3,A2,a,a,TRUE,1175,1,16019,trainPhase
10,3,B4,b,b,TRUE,1915,1,16019,trainPhase
11,3,B6,b,b,TRUE,1810,1,16019,trainPhase
0,4,B4,b,b,TRUE,1533,1,16019,trainPhase
1,4,B2,b,b,TRUE,2647,1,16019,trainPhase
2,4,B6,b,b,TRUE,1207,1,16019,trainPhase
3,4,A1,a,a,TRUE,2295,1,16019,trainPhase
4,4,B3,b,a,FALSE,1487,1,16019,trainPhase
5,4,A3,a,a,TRUE,2518,1,16019,trainPhase
6,4,B5,b,b,TRUE,2737,1,16019,trainPhase
7,4,A2,a,a,TRUE,4032,1,16019,trainPhase
8,4,A4,a,b,FALSE,5657,1,16019,trainPhase
9,4,B1,b,b,TRUE,2153,1,16019,trainPhase
10,4,A5,a,a,TRUE,1278,1,16019,trainPhase
11,4,A6,a,a,TRUE,1670,1,16019,trainPhase
0,5,A6,a,a,TRUE,1408,1,16019,trainPhase
1,5,B3,b,a,FALSE,1389,1,16019,trainPhase
2,5,B1,b,b,TRUE,3153,1,16019,trainPhase
3,5,A5,a,a,TRUE,5481,1,16019,trainPhase
4,5,B6,b,b,TRUE,2986,1,16019,trainPhase
5,5,B4,b,b,TRUE,5041,1,16019,trainPhase
6,5,B5,b,b,TRUE,3460,1,16019,trainPhase
7,5,A1,a,a,TRUE,1617,1,16019,trainPhase
8,5,B2,b,b,TRUE,3526,1,16019,trainPhase
9,5,A4,a,b,FALSE,1162,1,16019,trainPhase
10,5,A3,a,a,TRUE,3052,1,16019,trainPhase
11,5,A2,a,a,TRUE,922,1,16019,trainPhase
0,6,B1,b,b,TRUE,1737,1,16019,trainPhase
1,6,A4,a,b,FALSE,7002,1,16019,trainPhase
2,6,B5,b,b,TRUE,1122,1,16019,trainPhase
3,6,B2,b,a,FALSE,3412,1,16019,trainPhase
4,6,A3,a,a,TRUE,1592,1,16019,trainPhase
5,6,A5,a,a,TRUE,1127,1,16019,trainPhase
6,6,B3,b,a,FALSE,1609,1,16019,trainPhase
7,6,A1,a,a,TRUE,5484,1,16019,trainPhase
8,6,B6,b,b,TRUE,3484,1,16019,trainPhase
9,6,A6,a,b,FALSE,1624,1,16019,trainPhase
10,6,B4,b,b,TRUE,2471,1,16019,trainPhase
11,6,A2,a,a,TRUE,2940,1,16019,trainPhase
0,7,A5,a,a,TRUE,2208,1,16019,trainPhase
1,7,B6,b,b,TRUE,1440,1,16019,trainPhase
2,7,B5,b,b,TRUE,2061,1,16019,trainPhase
3,7,B3,b,a,FALSE,3152,1,16019,trainPhase
4,7,B4,b,b,TRUE,1032,1,16019,trainPhase
5,7,A3,a,a,TRUE,1867,1,16019,trainPhase
6,7,B1,b,b,TRUE,7300,1,16019,trainPhase
7,7,A6,a,a,TRUE,2567,1,16019,trainPhase
8,7,B2,b,b,TRUE,2530,1,16019,trainPhase
9,7,A2,a,a,TRUE,2212,1,16019,trainPhase
10,7,A1,a,a,TRUE,2248,1,16019,trainPhase
11,7,A4,a,b,FALSE,1720,1,16019,trainPhase
0,8,B2,b,b,TRUE,6127,1,16019,trainPhase
1,8,B6,b,b,TRUE,1404,1,16019,trainPhase
2,8,A6,a,a,TRUE,1920,1,16019,trainPhase
3,8,B5,b,b,TRUE,1632,1,16019,trainPhase
4,8,B1,b,b,TRUE,2091,1,16019,trainPhase
5,8,A5,a,a,TRUE,2458,1,16019,trainPhase
6,8,B4,b,b,TRUE,1819,1,16019,trainPhase
7,8,A1,a,a,TRUE,14499,1,16019,trainPhase
8,8,B3,b,a,FALSE,1900,1,16019,trainPhase
9,8,A2,a,a,TRUE,9352,1,16019,trainPhase
10,8,A3,a,a,TRUE,1030,1,16019,trainPhase
11,8,A4,a,b,FALSE,11190,1,16019,trainPhase
0,9,B4,b,b,TRUE,1294,1,16019,trainPhase
1,9,B6,b,b,TRUE,876,1,16019,trainPhase
2,9,B5,b,b,TRUE,903,1,16019,trainPhase
3,9,B2,b,b,TRUE,2149,1,16019,trainPhase
4,9,A4,a,b,FALSE,1293,1,16019,trainPhase
5,9,A2,a,a,TRUE,1027,1,16019,trainPhase
6,9,A3,a,a,TRUE,701,1,16019,trainPhase
7,9,A5,a,a,TRUE,1059,1,16019,trainPhase
8,9,B3,b,a,FALSE,737,1,16019,trainPhase
9,9,A1,a,a,TRUE,1170,1,16019,trainPhase
10,9,B1,b,b,TRUE,2225,1,16019,trainPhase
11,9,A6,a,a,TRUE,2254,1,16019,trainPhase
0,10,A2,a,a,TRUE,2744,1,16019,trainPhase
1,10,A6,a,a,TRUE,1137,1,16019,trainPhase
2,10,B3,b,a,FALSE,1438,1,16019,trainPhase
3,10,B1,b,b,TRUE,2340,1,16019,trainPhase
4,10,B4,b,b,TRUE,1086,1,16019,trainPhase
5,10,A3,a,a,TRUE,1416,1,16019,trainPhase
6,10,B6,b,b,TRUE,3533,1,16019,trainPhase
7,10,A5,a,a,TRUE,1401,1,16019,trainPhase
8,10,B5,b,b,TRUE,1444,1,16019,trainPhase
9,10,A4,a,a,TRUE,3471,1,16019,trainPhase
10,10,B2,b,b,TRUE,1811,1,16019,trainPhase
11,10,A1,a,a,TRUE,1111,1,16019,trainPhase
0,11,A2,a,a,TRUE,926,1,16019,trainPhase
1,11,A6,a,b,FALSE,1384,1,16019,trainPhase
2,11,B1,b,b,TRUE,7953,1,16019,trainPhase
3,11,B5,b,b,TRUE,1092,1,16019,trainPhase
4,11,B3,b,a,FALSE,1261,1,16019,trainPhase
5,11,B2,b,b,TRUE,1279,1,16019,trainPhase
6,11,A1,a,a,TRUE,2834,1,16019,trainPhase
7,11,B6,b,b,TRUE,1028,1,16019,trainPhase
8,11,A4,a,b,FALSE,1554,1,16019,trainPhase
9,11,A3,a,a,TRUE,1103,1,16019,trainPhase
10,11,B4,b,b,TRUE,907,1,16019,trainPhase
11,11,A5,a,a,TRUE,1066,1,16019,trainPhase
0,12,A5,a,a,TRUE,1093,1,16019,trainPhase
1,12,B2,b,b,TRUE,987,1,16019,trainPhase
2,12,A2,a,a,TRUE,1146,1,16019,trainPhase
3,12,B3,b,a,FALSE,1820,1,16019,trainPhase
4,12,B5,b,b,TRUE,918,1,16019,trainPhase
5,12,B6,b,b,TRUE,942,1,16019,trainPhase
6,12,B4,b,b,TRUE,1006,1,16019,trainPhase
7,12,A3,a,a,TRUE,996,1,16019,trainPhase
8,12,A1,a,a,TRUE,998,1,16019,trainPhase
9,12,B1,b,b,TRUE,1477,1,16019,trainPhase
10,12,A6,a,a,TRUE,1496,1,16019,trainPhase
11,12,A4,a,a,TRUE,1500,1,16019,trainPhase
0,13,B4,b,b,TRUE,1063,1,16019,trainPhase
1,13,A2,a,a,TRUE,1442,1,16019,trainPhase
2,13,A5,a,a,TRUE,1209,1,16019,trainPhase
3,13,A3,a,a,TRUE,1029,1,16019,trainPhase
4,13,A1,a,a,TRUE,1837,1,16019,trainPhase
5,13,B5,b,b,TRUE,1188,1,16019,trainPhase
6,13,A4,a,b,FALSE,3445,1,16019,trainPhase
7,13,B1,b,b,TRUE,2102,1,16019,trainPhase
8,13,B3,b,a,FALSE,1368,1,16019,trainPhase
9,13,B2,b,b,TRUE,5078,1,16019,trainPhase
10,13,A6,a,a,TRUE,1518,1,16019,trainPhase
11,13,B6,b,b,TRUE,4134,1,16019,trainPhase
0,14,B6,b,b,TRUE,1416,1,16019,trainPhase
1,14,A6,a,a,TRUE,1453,1,16019,trainPhase
2,14,B5,b,b,TRUE,1333,1,16019,trainPhase
3,14,B2,b,b,TRUE,2342,1,16019,trainPhase
4,14,A1,a,a,TRUE,1326,1,16019,trainPhase
5,14,A5,a,a,TRUE,958,1,16019,trainPhase
6,14,B1,b,b,TRUE,2235,1,16019,trainPhase
7,14,A3,a,a,TRUE,1054,1,16019,trainPhase
8,14,A4,a,b,FALSE,1947,1,16019,trainPhase
9,14,B4,b,b,TRUE,825,1,16019,trainPhase
10,14,A2,a,a,TRUE,981,1,16019,trainPhase
11,14,B3,b,a,FALSE,1628,1,16019,trainPhase
0,0,A6,a,b,FALSE,3707,1,16020,trainPhase
1,0,B4,b,a,FALSE,2693,1,16020,trainPhase
2,0,A1,a,b,FALSE,3481,1,16020,trainPhase
3,0,B1,b,b,TRUE,4942,1,16020,trainPhase
4,0,A3,a,a,TRUE,2438,1,16020,trainPhase
5,0,A5,a,b,FALSE,2557,1,16020,trainPhase
6,0,A4,a,b,FALSE,3552,1,16020,trainPhase
7,0,A2,a,b,FALSE,1229,1,16020,trainPhase
8,0,B3,b,b,TRUE,1720,1,16020,trainPhase
9,0,B2,b,a,FALSE,1999,1,16020,trainPhase
10,0,B6,b,a,FALSE,1472,1,16020,trainPhase
11,0,B5,b,b,TRUE,9764,1,16020,trainPhase
0,1,A6,a,a,TRUE,1159,1,16020,trainPhase
1,1,B3,b,a,FALSE,4919,1,16020,trainPhase
2,1,B6,b,b,TRUE,3934,1,16020,trainPhase
3,1,A5,a,a,TRUE,1846,1,16020,trainPhase
4,1,B4,b,a,FALSE,2873,1,16020,trainPhase
5,1,A4,a,b,FALSE,4318,1,16020,trainPhase
6,1,B2,b,a,FALSE,2250,1,16020,trainPhase
7,1,B1,b,b,TRUE,1641,1,16020,trainPhase
8,1,A1,a,a,TRUE,1578,1,16020,trainPhase
9,1,A2,a,a,TRUE,1649,1,16020,trainPhase
10,1,B5,b,b,TRUE,2390,1,16020,trainPhase
11,1,A3,a,a,TRUE,1216,1,16020,trainPhase
0,2,A4,a,b,FALSE,2714,1,16020,trainPhase
1,2,B6,b,a,FALSE,2868,1,16020,trainPhase
2,2,B1,b,b,TRUE,3254,1,16020,trainPhase
3,2,B3,b,a,FALSE,1318,1,16020,trainPhase
4,2,A1,a,a,TRUE,1038,1,16020,trainPhase
5,2,B4,b,b,TRUE,4076,1,16020,trainPhase
6,2,B2,b,b,TRUE,2267,1,16020,trainPhase
7,2,A5,a,a,TRUE,1600,1,16020,trainPhase
8,2,A2,a,b,FALSE,2683,1,16020,trainPhase
9,2,B5,b,b,TRUE,1265,1,16020,trainPhase
10,2,A3,a,a,TRUE,1279,1,16020,trainPhase
11,2,A6,a,b,FALSE,2286,1,16020,trainPhase
0,3,B4,b,b,TRUE,1745,1,16020,trainPhase
1,3,A3,a,a,TRUE,1479,1,16020,trainPhase
2,3,A2,a,a,TRUE,1794,1,16020,trainPhase
3,3,A6,a,a,TRUE,2043,1,16020,trainPhase
4,3,B5,b,b,TRUE,4416,1,16020,trainPhase
5,3,B2,b,b,TRUE,2032,1,16020,trainPhase
6,3,B6,b,b,TRUE,1996,1,16020,trainPhase
7,3,A4,a,b,FALSE,1681,1,16020,trainPhase
8,3,A1,a,b,FALSE,2944,1,16020,trainPhase
9,3,A5,a,a,TRUE,1499,1,16020,trainPhase
10,3,B3,b,a,FALSE,1155,1,16020,trainPhase
11,3,B1,b,b,TRUE,1328,1,16020,trainPhase
0,4,B2,b,b,TRUE,1403,1,16020,trainPhase
1,4,B1,b,b,TRUE,1266,1,16020,trainPhase
2,4,B3,b,b,TRUE,3133,1,16020,trainPhase
3,4,B5,b,b,TRUE,4401,1,16020,trainPhase
4,4,A1,a,b,FALSE,2415,1,16020,trainPhase
5,4,A3,a,a,TRUE,1383,1,16020,trainPhase
6,4,A2,a,a,TRUE,1173,1,16020,trainPhase
7,4,A5,a,a,TRUE,3554,1,16020,trainPhase
8,4,A4,a,b,FALSE,2611,1,16020,trainPhase
9,4,B4,b,b,TRUE,1367,1,16020,trainPhase
10,4,A6,a,a,TRUE,2133,1,16020,trainPhase
11,4,B6,b,b,TRUE,3617,1,16020,trainPhase
0,5,B2,b,b,TRUE,2129,1,16020,trainPhase
1,5,B1,b,b,TRUE,1209,1,16020,trainPhase
2,5,B4,b,b,TRUE,3277,1,16020,trainPhase
3,5,B3,b,a,FALSE,3968,1,16020,trainPhase
4,5,A2,a,b,FALSE,1902,1,16020,trainPhase
5,5,A6,a,a,TRUE,3094,1,16020,trainPhase
6,5,B6,b,b,TRUE,3158,1,16020,trainPhase
7,5,A4,a,b,FALSE,1361,1,16020,trainPhase
8,5,A3,a,a,TRUE,1236,1,16020,trainPhase
9,5,B5,b,b,TRUE,1449,1,16020,trainPhase
10,5,A5,a,a,TRUE,2605,1,16020,trainPhase
11,5,A1,a,a,TRUE,3533,1,16020,trainPhase
0,6,A1,a,a,TRUE,1345,1,16020,trainPhase
1,6,B6,b,b,TRUE,7230,1,16020,trainPhase
2,6,B1,b,b,TRUE,1486,1,16020,trainPhase
3,6,B2,b,b,TRUE,1969,1,16020,trainPhase
4,6,A4,a,a,TRUE,2704,1,16020,trainPhase
5,6,B4,b,b,TRUE,2303,1,16020,trainPhase
6,6,A5,a,a,TRUE,2698,1,16020,trainPhase
7,6,A3,a,a,TRUE,1338,1,16020,trainPhase
8,6,A2,a,a,TRUE,1657,1,16020,trainPhase
9,6,B5,b,b,TRUE,3950,1,16020,trainPhase
10,6,A6,a,a,TRUE,1284,1,16020,trainPhase
11,6,B3,b,a,FALSE,3230,1,16020,trainPhase
0,7,A3,a,a,TRUE,1417,1,16020,trainPhase
1,7,A4,a,b,FALSE,1793,1,16020,trainPhase
2,7,B5,b,a,FALSE,4674,1,16020,trainPhase
3,7,B2,b,b,TRUE,1257,1,16020,trainPhase
4,7,A2,a,a,TRUE,2435,1,16020,trainPhase
5,7,B1,b,b,TRUE,3260,1,16020,trainPhase
6,7,B4,b,b,TRUE,7057,1,16020,trainPhase
7,7,A6,a,a,TRUE,1409,1,16020,trainPhase
8,7,A5,a,a,TRUE,7212,1,16020,trainPhase
9,7,A1,a,b,FALSE,4091,1,16020,trainPhase
10,7,B3,b,a,FALSE,2554,1,16020,trainPhase
11,7,B6,b,b,TRUE,3020,1,16020,trainPhase
0,8,B1,b,b,TRUE,1622,1,16020,trainPhase
1,8,B3,b,b,TRUE,2172,1,16020,trainPhase
2,8,B2,b,b,TRUE,2198,1,16020,trainPhase
3,8,B6,b,b,TRUE,2328,1,16020,trainPhase
4,8,A2,a,a,TRUE,1611,1,16020,trainPhase
5,8,A1,a,a,TRUE,1917,1,16020,trainPhase
6,8,B5,b,b,TRUE,1103,1,16020,trainPhase
7,8,A5,a,a,TRUE,2005,1,16020,trainPhase
8,8,A3,a,a,TRUE,1188,1,16020,trainPhase
9,8,A4,a,b,FALSE,3115,1,16020,trainPhase
10,8,A6,a,a,TRUE,2970,1,16020,trainPhase
11,8,B4,b,b,TRUE,1343,1,16020,trainPhase
0,9,B5,b,b,TRUE,7815,1,16020,trainPhase
1,9,B4,b,b,TRUE,1079,1,16020,trainPhase
2,9,B6,b,b,TRUE,1280,1,16020,trainPhase
3,9,A5,a,a,TRUE,1834,1,16020,trainPhase
4,9,B2,b,b,TRUE,2810,1,16020,trainPhase
5,9,A1,a,a,TRUE,2241,1,16020,trainPhase
6,9,B1,b,b,TRUE,1958,1,16020,trainPhase
7,9,A6,a,a,TRUE,2493,1,16020,trainPhase
8,9,A3,a,a,TRUE,1139,1,16020,trainPhase
9,9,A4,a,a,TRUE,2089,1,16020,trainPhase
10,9,B3,b,a,FALSE,1254,1,16020,trainPhase
11,9,A2,a,a,TRUE,1414,1,16020,trainPhase
0,10,A5,a,b,FALSE,1049,1,16020,trainPhase
1,10,B5,b,b,TRUE,1380,1,16020,trainPhase
2,10,A4,a,a,TRUE,3322,1,16020,trainPhase
3,10,A3,a,a,TRUE,1446,1,16020,trainPhase
4,10,B3,b,a,FALSE,3539,1,16020,trainPhase
5,10,B2,b,b,TRUE,5321,1,16020,trainPhase
6,10,B6,b,b,TRUE,2561,1,16020,trainPhase
7,10,B1,b,b,TRUE,2118,1,16020,trainPhase
8,10,A2,a,b,FALSE,1337,1,16020,trainPhase
9,10,A6,a,a,TRUE,1050,1,16020,trainPhase
10,10,B4,b,b,TRUE,1274,1,16020,trainPhase
11,10,A1,a,a,TRUE,2988,1,16020,trainPhase
0,11,A1,a,a,TRUE,3166,1,16020,trainPhase
1,11,A5,a,a,TRUE,1636,1,16020,trainPhase
2,11,A3,a,a,TRUE,1013,1,16020,trainPhase
3,11,B6,b,b,TRUE,2124,1,16020,trainPhase
4,11,A6,a,a,TRUE,1280,1,16020,trainPhase
5,11,A2,a,b,FALSE,4767,1,16020,trainPhase
6,11,B1,b,b,TRUE,1106,1,16020,trainPhase
7,11,B5,b,b,TRUE,3864,1,16020,trainPhase
8,11,B3,b,b,TRUE,2190,1,16020,trainPhase
9,11,A4,a,b,FALSE,2432,1,16020,trainPhase
10,11,B4,b,b,TRUE,1023,1,16020,trainPhase
11,11,B2,b,b,TRUE,1000,1,16020,trainPhase
0,12,A6,a,a,TRUE,1395,1,16020,trainPhase
1,12,B3,b,a,FALSE,1444,1,16020,trainPhase
2,12,B5,b,b,TRUE,1797,1,16020,trainPhase
3,12,A1,a,b,FALSE,3855,1,16020,trainPhase
4,12,B2,b,b,TRUE,1259,1,16020,trainPhase
5,12,B4,b,b,TRUE,1282,1,16020,trainPhase
6,12,B6,b,b,TRUE,1894,1,16020,trainPhase
7,12,A5,a,a,TRUE,1296,1,16020,trainPhase
8,12,A3,a,a,TRUE,978,1,16020,trainPhase
9,12,A4,a,a,TRUE,6091,1,16020,trainPhase
10,12,B1,b,b,TRUE,1640,1,16020,trainPhase
11,12,A2,a,a,TRUE,4038,1,16020,trainPhase
0,13,B2,b,b,TRUE,2074,1,16020,trainPhase
1,13,B6,b,a,FALSE,3700,1,16020,trainPhase
2,13,A3,a,a,TRUE,1118,1,16020,trainPhase
3,13,A5,a,a,TRUE,1052,1,16020,trainPhase
4,13,B3,b,a,FALSE,2443,1,16020,trainPhase
5,13,B5,b,b,TRUE,5625,1,16020,trainPhase
6,13,B1,b,b,TRUE,1096,1,16020,trainPhase
7,13,A1,a,a,TRUE,3294,1,16020,trainPhase
8,13,B4,b,b,TRUE,1133,1,16020,trainPhase
9,13,A2,a,a,TRUE,2165,1,16020,trainPhase
10,13,A6,a,a,TRUE,1649,1,16020,trainPhase
11,13,A4,a,b,FALSE,2985,1,16020,trainPhase
0,14,A3,a,a,TRUE,1774,1,16020,trainPhase
1,14,A1,a,b,FALSE,3817,1,16020,trainPhase
2,14,B3,b,b,TRUE,3496,1,16020,trainPhase
3,14,B5,b,b,TRUE,1163,1,16020,trainPhase
4,14,B6,b,b,TRUE,1808,1,16020,trainPhase
5,14,A5,a,a,TRUE,3554,1,16020,trainPhase
6,14,A6,a,a,TRUE,1350,1,16020,trainPhase
7,14,A4,a,a,TRUE,2018,1,16020,trainPhase
8,14,A2,a,a,TRUE,2915,1,16020,trainPhase
9,14,B2,b,b,TRUE,1575,1,16020,trainPhase
10,14,B1,b,b,TRUE,1333,1,16020,trainPhase
11,14,B4,b,b,TRUE,1245,1,16020,trainPhase
0,0,B4,b,a,FALSE,3292,1,16021,trainPhase
1,0,A4,a,b,FALSE,1411,1,16021,trainPhase
2,0,A6,a,b,FALSE,4478,1,16021,trainPhase
3,0,A5,a,b,FALSE,1406,1,16021,trainPhase
4,0,B6,b,a,FALSE,1050,1,16021,trainPhase
5,0,B3,b,a,FALSE,2790,1,16021,trainPhase
6,0,A2,a,b,FALSE,2359,1,16021,trainPhase
7,0,B1,b,a,FALSE,1770,1,16021,trainPhase
8,0,A1,a,a,TRUE,1225,1,16021,trainPhase
9,0,B2,b,b,TRUE,1165,1,16021,trainPhase
10,0,B5,b,a,FALSE,3200,1,16021,trainPhase
11,0,A3,a,a,TRUE,2446,1,16021,trainPhase
0,1,B2,b,b,TRUE,1012,1,16021,trainPhase
1,1,A2,a,a,TRUE,873,1,16021,trainPhase
2,1,A1,a,a,TRUE,863,1,16021,trainPhase
3,1,B4,b,b,TRUE,985,1,16021,trainPhase
4,1,B3,b,a,FALSE,1454,1,16021,trainPhase
5,1,A5,a,a,TRUE,1930,1,16021,trainPhase
6,1,A3,a,a,TRUE,1019,1,16021,trainPhase
7,1,B1,b,b,TRUE,1708,1,16021,trainPhase
8,1,B5,b,b,TRUE,1139,1,16021,trainPhase
9,1,A6,a,a,TRUE,1647,1,16021,trainPhase
10,1,B6,b,b,TRUE,885,1,16021,trainPhase
11,1,A4,a,a,TRUE,1728,1,16021,trainPhase
0,2,A4,a,a,TRUE,1430,1,16021,trainPhase
1,2,B3,b,a,FALSE,896,1,16021,trainPhase
2,2,A3,a,a,TRUE,1531,1,16021,trainPhase
3,2,B6,b,b,TRUE,801,1,16021,trainPhase
4,2,A1,a,a,TRUE,951,1,16021,trainPhase
5,2,A2,a,a,TRUE,841,1,16021,trainPhase
6,2,A6,a,b,FALSE,892,1,16021,trainPhase
7,2,A5,a,a,TRUE,3079,1,16021,trainPhase
8,2,B1,b,b,TRUE,1128,1,16021,trainPhase
9,2,B5,b,b,TRUE,871,1,16021,trainPhase
10,2,B4,b,b,TRUE,700,1,16021,trainPhase
11,2,B2,b,b,TRUE,892,1,16021,trainPhase
0,3,B2,b,b,TRUE,697,1,16021,trainPhase
1,3,A5,a,a,TRUE,1009,1,16021,trainPhase
2,3,A3,a,a,TRUE,846,1,16021,trainPhase
3,3,A1,a,b,FALSE,4259,1,16021,trainPhase
4,3,B5,b,b,TRUE,992,1,16021,trainPhase
5,3,B3,b,a,FALSE,1417,1,16021,trainPhase
6,3,B4,b,b,TRUE,1081,1,16021,trainPhase
7,3,A6,a,b,FALSE,5114,1,16021,trainPhase
8,3,B6,b,b,TRUE,1258,1,16021,trainPhase
9,3,A2,a,a,TRUE,1135,1,16021,trainPhase
10,3,A4,a,a,TRUE,2456,1,16021,trainPhase
11,3,B1,b,b,TRUE,1389,1,16021,trainPhase
0,4,B2,b,b,TRUE,887,1,16021,trainPhase
1,4,A6,a,a,TRUE,877,1,16021,trainPhase
2,4,B3,b,b,TRUE,1617,1,16021,trainPhase
3,4,B6,b,b,TRUE,966,1,16021,trainPhase
4,4,A4,a,a,TRUE,1166,1,16021,trainPhase
5,4,B4,b,b,TRUE,742,1,16021,trainPhase
6,4,A1,a,a,TRUE,1671,1,16021,trainPhase
7,4,A2,a,a,TRUE,1499,1,16021,trainPhase
8,4,B1,b,b,TRUE,694,1,16021,trainPhase
9,4,A5,a,a,TRUE,1285,1,16021,trainPhase
10,4,B5,b,b,TRUE,1013,1,16021,trainPhase
11,4,A3,a,a,TRUE,905,1,16021,trainPhase
0,0,B4,b,b,TRUE,4738,1,16022,trainPhase
1,0,A5,a,b,FALSE,2444,1,16022,trainPhase
2,0,A1,a,a,TRUE,2571,1,16022,trainPhase
3,0,B5,b,b,TRUE,1085,1,16022,trainPhase
4,0,B1,b,a,FALSE,1602,1,16022,trainPhase
5,0,A3,a,a,TRUE,3767,1,16022,trainPhase
6,0,A6,a,a,TRUE,7168,1,16022,trainPhase
7,0,A4,a,b,FALSE,1556,1,16022,trainPhase
8,0,B2,b,a,FALSE,2419,1,16022,trainPhase
9,0,A2,a,a,TRUE,5466,1,16022,trainPhase
10,0,B6,b,b,TRUE,2719,1,16022,trainPhase
11,0,B3,b,a,FALSE,2136,1,16022,trainPhase
0,1,A3,a,b,FALSE,9249,1,16022,trainPhase
1,1,A1,a,a,TRUE,8906,1,16022,trainPhase
2,1,B2,b,a,FALSE,4817,1,16022,trainPhase
3,1,A5,a,a,TRUE,1275,1,16022,trainPhase
4,1,A6,a,a,TRUE,1354,1,16022,trainPhase
5,1,A4,a,b,FALSE,1001,1,16022,trainPhase
6,1,A2,a,a,TRUE,5321,1,16022,trainPhase
7,1,B3,b,a,FALSE,2830,1,16022,trainPhase
8,1,B1,b,b,TRUE,1550,1,16022,trainPhase
9,1,B5,b,b,TRUE,1961,1,16022,trainPhase
10,1,B4,b,b,TRUE,1402,1,16022,trainPhase
11,1,B6,b,a,FALSE,1392,1,16022,trainPhase
0,2,B3,b,a,FALSE,1465,1,16022,trainPhase
1,2,A1,a,b,FALSE,4362,1,16022,trainPhase
2,2,A2,a,b,FALSE,3023,1,16022,trainPhase
3,2,B1,b,b,TRUE,1670,1,16022,trainPhase
4,2,B2,b,b,TRUE,1671,1,16022,trainPhase
5,2,A3,a,a,TRUE,921,1,16022,trainPhase
6,2,A4,a,a,TRUE,1027,1,16022,trainPhase
7,2,B4,b,a,FALSE,1546,1,16022,trainPhase
8,2,B5,b,a,FALSE,937,1,16022,trainPhase
9,2,A5,a,a,TRUE,1134,1,16022,trainPhase
10,2,A6,a,a,TRUE,986,1,16022,trainPhase
11,2,B6,b,a,FALSE,4207,1,16022,trainPhase
0,3,A3,a,b,FALSE,2226,1,16022,trainPhase
1,3,A2,a,b,FALSE,3145,1,16022,trainPhase
2,3,B3,b,a,FALSE,1404,1,16022,trainPhase
3,3,B2,b,b,TRUE,1720,1,16022,trainPhase
4,3,B6,b,a,FALSE,1339,1,16022,trainPhase
5,3,A6,a,a,TRUE,1071,1,16022,trainPhase
6,3,B5,b,b,TRUE,1123,1,16022,trainPhase
7,3,A1,a,b,FALSE,1191,1,16022,trainPhase
8,3,B4,b,a,FALSE,1832,1,16022,trainPhase
9,3,B1,b,b,TRUE,1081,1,16022,trainPhase
10,3,A5,a,a,TRUE,4311,1,16022,trainPhase
11,3,A4,a,a,TRUE,4632,1,16022,trainPhase
0,4,A4,a,a,TRUE,1403,1,16022,trainPhase
1,4,A6,a,a,TRUE,4009,1,16022,trainPhase
2,4,B5,b,a,FALSE,1997,1,16022,trainPhase
3,4,B4,b,a,FALSE,1144,1,16022,trainPhase
4,4,A1,a,b,FALSE,1808,1,16022,trainPhase
5,4,A3,a,a,TRUE,1133,1,16022,trainPhase
6,4,B1,b,a,FALSE,1801,1,16022,trainPhase
7,4,B6,b,a,FALSE,746,1,16022,trainPhase
8,4,B3,b,a,FALSE,738,1,16022,trainPhase
9,4,B2,b,a,FALSE,1164,1,16022,trainPhase
10,4,A2,a,b,FALSE,1632,1,16022,trainPhase
11,4,A5,a,b,FALSE,1884,1,16022,trainPhase
0,5,A3,a,a,TRUE,408,1,16022,trainPhase
1,5,B4,b,a,FALSE,1257,1,16022,trainPhase
2,5,B3,b,a,FALSE,545,1,16022,trainPhase
3,5,B2,b,a,FALSE,1007,1,16022,trainPhase
4,5,B6,b,a,FALSE,1533,1,16022,trainPhase
5,5,B5,b,b,TRUE,1497,1,16022,trainPhase
6,5,A5,a,b,FALSE,1582,1,16022,trainPhase
7,5,A4,a,a,TRUE,424,1,16022,trainPhase
8,5,B1,b,b,TRUE,685,1,16022,trainPhase
9,5,A6,a,a,TRUE,542,1,16022,trainPhase
10,5,A1,a,b,FALSE,807,1,16022,trainPhase
11,5,A2,a,a,TRUE,327,1,16022,trainPhase
0,6,A1,a,b,FALSE,1489,1,16022,trainPhase
1,6,B1,b,b,TRUE,1224,1,16022,trainPhase
2,6,B6,b,a,FALSE,2626,1,16022,trainPhase
3,6,B3,b,b,TRUE,388,1,16022,trainPhase
4,6,B5,b,a,FALSE,494,1,16022,trainPhase
5,6,A4,a,b,FALSE,475,1,16022,trainPhase
6,6,B2,b,b,TRUE,3649,1,16022,trainPhase
7,6,B4,b,b,TRUE,1275,1,16022,trainPhase
8,6,A6,a,a,TRUE,792,1,16022,trainPhase
9,6,A3,a,a,TRUE,983,1,16022,trainPhase
10,6,A2,a,b,FALSE,1070,1,16022,trainPhase
11,6,A5,a,a,TRUE,4111,1,16022,trainPhase
0,7,A4,a,b,FALSE,1447,1,16022,trainPhase
1,7,A2,a,a,TRUE,2718,1,16022,trainPhase
2,7,A6,a,a,TRUE,1015,1,16022,trainPhase
3,7,A1,a,b,FALSE,1015,1,16022,trainPhase
4,7,B3,b,a,FALSE,661,1,16022,trainPhase
5,7,B5,b,b,TRUE,599,1,16022,trainPhase
6,7,B6,b,a,FALSE,982,1,16022,trainPhase
7,7,A3,a,a,TRUE,3637,1,16022,trainPhase
8,7,B2,b,b,TRUE,1055,1,16022,trainPhase
9,7,B1,b,b,TRUE,1394,1,16022,trainPhase
10,7,A5,a,b,FALSE,1005,1,16022,trainPhase
11,7,B4,b,a,FALSE,404,1,16022,trainPhase
0,8,B3,b,b,TRUE,575,1,16022,trainPhase
1,8,A6,a,a,TRUE,1086,1,16022,trainPhase
2,8,B1,b,b,TRUE,920,1,16022,trainPhase
3,8,A3,a,a,TRUE,814,1,16022,trainPhase
4,8,A5,a,a,TRUE,789,1,16022,trainPhase
5,8,A1,a,b,FALSE,867,1,16022,trainPhase
6,8,B4,b,a,FALSE,1677,1,16022,trainPhase
7,8,B5,b,a,FALSE,1103,1,16022,trainPhase
8,8,A4,a,b,FALSE,2091,1,16022,trainPhase
9,8,B2,b,a,FALSE,636,1,16022,trainPhase
10,8,B6,b,b,TRUE,472,1,16022,trainPhase
11,8,A2,a,b,FALSE,1078,1,16022,trainPhase
0,9,A1,a,b,FALSE,1631,1,16022,trainPhase
1,9,A5,a,a,TRUE,992,1,16022,trainPhase
2,9,A2,a,a,TRUE,916,1,16022,trainPhase
3,9,A4,a,a,TRUE,1060,1,16022,trainPhase
4,9,B5,b,a,FALSE,18192,1,16022,trainPhase
5,9,B4,b,b,TRUE,8734,1,16022,trainPhase
6,9,A3,a,a,TRUE,880,1,16022,trainPhase
7,9,B1,b,b,TRUE,1035,1,16022,trainPhase
8,9,B6,b,a,FALSE,3064,1,16022,trainPhase
9,9,A6,a,a,TRUE,805,1,16022,trainPhase
10,9,B2,b,b,TRUE,875,1,16022,trainPhase
11,9,B3,b,b,TRUE,1973,1,16022,trainPhase
0,10,B4,b,b,TRUE,1224,1,16022,trainPhase
1,10,B3,b,b,TRUE,933,1,16022,trainPhase
2,10,A2,a,b,FALSE,649,1,16022,trainPhase
3,10,A6,a,a,TRUE,607,1,16022,trainPhase
4,10,B2,b,b,TRUE,988,1,16022,trainPhase
5,10,B1,b,b,TRUE,970,1,16022,trainPhase
6,10,B5,b,b,TRUE,935,1,16022,trainPhase
7,10,B6,b,b,TRUE,775,1,16022,trainPhase
8,10,A3,a,a,TRUE,1459,1,16022,trainPhase
9,10,A1,a,b,FALSE,1091,1,16022,trainPhase
10,10,A4,a,b,FALSE,1975,1,16022,trainPhase
11,10,A5,a,a,TRUE,3589,1,16022,trainPhase
0,11,B5,b,b,TRUE,912,1,16022,trainPhase
1,11,B2,b,a,FALSE,951,1,16022,trainPhase
2,11,A2,a,b,FALSE,1257,1,16022,trainPhase
3,11,B1,b,b,TRUE,2047,1,16022,trainPhase
4,11,B4,b,b,TRUE,505,1,16022,trainPhase
5,11,B6,b,b,TRUE,436,1,16022,trainPhase
6,11,A6,a,a,TRUE,1285,1,16022,trainPhase
7,11,A4,a,b,FALSE,659,1,16022,trainPhase
8,11,A3,a,b,FALSE,604,1,16022,trainPhase
9,11,A5,a,b,FALSE,1503,1,16022,trainPhase
10,11,A1,a,a,TRUE,638,1,16022,trainPhase
11,11,B3,b,a,FALSE,964,1,16022,trainPhase
0,12,B6,b,a,FALSE,533,1,16022,trainPhase
1,12,A2,a,a,TRUE,257,1,16022,trainPhase
2,12,B2,b,a,FALSE,357,1,16022,trainPhase
3,12,A6,a,b,FALSE,924,1,16022,trainPhase
4,12,B1,b,a,FALSE,349,1,16022,trainPhase
5,12,A5,a,b,FALSE,1945,1,16022,trainPhase
6,12,A4,a,a,TRUE,1294,1,16022,trainPhase
7,12,B4,b,b,TRUE,615,1,16022,trainPhase
8,12,B3,b,a,FALSE,606,1,16022,trainPhase
9,12,A1,a,b,FALSE,662,1,16022,trainPhase
10,12,A3,a,a,TRUE,297,1,16022,trainPhase
11,12,B5,b,b,TRUE,336,1,16022,trainPhase
0,13,B3,b,a,FALSE,317,1,16022,trainPhase
1,13,A2,a,b,FALSE,254,1,16022,trainPhase
2,13,A1,a,a,TRUE,281,1,16022,trainPhase
3,13,A4,a,b,FALSE,1426,1,16022,trainPhase
4,13,B1,b,b,TRUE,598,1,16022,trainPhase
5,13,A5,a,a,TRUE,1178,1,16022,trainPhase
6,13,A3,a,a,TRUE,782,1,16022,trainPhase
7,13,A6,a,a,TRUE,1646,1,16022,trainPhase
8,13,B4,b,b,TRUE,864,1,16022,trainPhase
9,13,B2,b,b,TRUE,1576,1,16022,trainPhase
10,13,B6,b,a,FALSE,793,1,16022,trainPhase
11,13,B5,b,b,TRUE,894,1,16022,trainPhase
0,14,B6,b,b,TRUE,998,1,16022,trainPhase
1,14,A3,a,a,TRUE,1247,1,16022,trainPhase
2,14,A4,a,b,FALSE,1479,1,16022,trainPhase
3,14,B5,b,b,TRUE,2022,1,16022,trainPhase
4,14,B4,b,a,FALSE,966,1,16022,trainPhase
5,14,B3,b,b,TRUE,2960,1,16022,trainPhase
6,14,B1,b,b,TRUE,4751,1,16022,trainPhase
7,14,B2,b,b,TRUE,779,1,16022,trainPhase
8,14,A1,a,b,FALSE,3065,1,16022,trainPhase
9,14,A6,a,a,TRUE,2703,1,16022,trainPhase
10,14,A2,a,b,FALSE,888,1,16022,trainPhase
11,14,A5,a,b,FALSE,1205,1,16022,trainPhase
0,0,B5,b,b,TRUE,3941,1,16023,trainPhase
1,0,A1,a,a,TRUE,1832,1,16023,trainPhase
2,0,B2,b,b,TRUE,2288,1,16023,trainPhase
3,0,A3,a,a,TRUE,2256,1,16023,trainPhase
4,0,A4,a,b,FALSE,2013,1,16023,trainPhase
5,0,B3,b,b,TRUE,5057,1,16023,trainPhase
6,0,A6,a,a,TRUE,4323,1,16023,trainPhase
7,0,A2,a,a,TRUE,4402,1,16023,trainPhase
8,0,A5,a,a,TRUE,3369,1,16023,trainPhase
9,0,B4,b,b,TRUE,2299,1,16023,trainPhase
10,0,B1,b,a,FALSE,3227,1,16023,trainPhase
11,0,B6,b,b,TRUE,7652,1,16023,trainPhase
0,1,B3,b,a,FALSE,1612,1,16023,trainPhase
1,1,B1,b,a,FALSE,8679,1,16023,trainPhase
2,1,A6,a,a,TRUE,2469,1,16023,trainPhase
3,1,A2,a,a,TRUE,2150,1,16023,trainPhase
4,1,A4,a,b,FALSE,3056,1,16023,trainPhase
5,1,A5,a,a,TRUE,1676,1,16023,trainPhase
6,1,A3,a,a,TRUE,2907,1,16023,trainPhase
7,1,A1,a,a,TRUE,3652,1,16023,trainPhase
8,1,B2,b,b,TRUE,7815,1,16023,trainPhase
9,1,B5,b,b,TRUE,2759,1,16023,trainPhase
10,1,B6,b,b,TRUE,5260,1,16023,trainPhase
11,1,B4,b,b,TRUE,3450,1,16023,trainPhase
0,2,B1,b,a,FALSE,1982,1,16023,trainPhase
1,2,B6,b,b,TRUE,2017,1,16023,trainPhase
2,2,B5,b,b,TRUE,1523,1,16023,trainPhase
3,2,B3,b,a,FALSE,1717,1,16023,trainPhase
4,2,A5,a,a,TRUE,2926,1,16023,trainPhase
5,2,B4,b,b,TRUE,3724,1,16023,trainPhase
6,2,A1,a,a,TRUE,1869,1,16023,trainPhase
7,2,B2,b,b,TRUE,2633,1,16023,trainPhase
8,2,A6,a,b,FALSE,3953,1,16023,trainPhase
9,2,A4,a,b,FALSE,5839,1,16023,trainPhase
10,2,A3,a,a,TRUE,1853,1,16023,trainPhase
11,2,A2,a,a,TRUE,1446,1,16023,trainPhase
0,3,B6,b,b,TRUE,2815,1,16023,trainPhase
1,3,B4,b,b,TRUE,1590,1,16023,trainPhase
2,3,B2,b,b,TRUE,1616,1,16023,trainPhase
3,3,A4,a,b,FALSE,8826,1,16023,trainPhase
4,3,B3,b,a,FALSE,1636,1,16023,trainPhase
5,3,A3,a,a,TRUE,6176,1,16023,trainPhase
6,3,A1,a,a,TRUE,1967,1,16023,trainPhase
7,3,A5,a,b,FALSE,7624,1,16023,trainPhase
8,3,A6,a,b,FALSE,2520,1,16023,trainPhase
9,3,A2,a,a,TRUE,1724,1,16023,trainPhase
10,3,B1,b,b,TRUE,5038,1,16023,trainPhase
11,3,B5,b,b,TRUE,1366,1,16023,trainPhase
0,4,B5,b,a,FALSE,9970,1,16023,trainPhase
1,4,A5,a,a,TRUE,3594,1,16023,trainPhase
2,4,A4,a,b,FALSE,4350,1,16023,trainPhase
3,4,A2,a,a,TRUE,1981,1,16023,trainPhase
4,4,B4,b,b,TRUE,2792,1,16023,trainPhase
5,4,B3,b,a,FALSE,2706,1,16023,trainPhase
6,4,B2,b,b,TRUE,1778,1,16023,trainPhase
7,4,A3,a,a,TRUE,1998,1,16023,trainPhase
8,4,A6,a,b,FALSE,1836,1,16023,trainPhase
9,4,A1,a,a,TRUE,9841,1,16023,trainPhase
10,4,B1,b,b,TRUE,2918,1,16023,trainPhase
11,4,B6,b,b,TRUE,2319,1,16023,trainPhase
0,5,B4,b,b,TRUE,1385,1,16023,trainPhase
1,5,B2,b,b,TRUE,1439,1,16023,trainPhase
2,5,B6,b,b,TRUE,1268,1,16023,trainPhase
3,5,A4,a,b,FALSE,2086,1,16023,trainPhase
4,5,B1,b,a,FALSE,1846,1,16023,trainPhase
5,5,A1,a,a,TRUE,2612,1,16023,trainPhase
6,5,A6,a,a,TRUE,2023,1,16023,trainPhase
7,5,A3,a,a,TRUE,1686,1,16023,trainPhase
8,5,A2,a,a,TRUE,2039,1,16023,trainPhase
9,5,B5,b,b,TRUE,1999,1,16023,trainPhase
10,5,B3,b,a,FALSE,3943,1,16023,trainPhase
11,5,A5,a,b,FALSE,1534,1,16023,trainPhase
0,6,A6,a,a,TRUE,3252,1,16023,trainPhase
1,6,B4,b,b,TRUE,1416,1,16023,trainPhase
2,6,B2,b,b,TRUE,1483,1,16023,trainPhase
3,6,B3,b,a,FALSE,2765,1,16023,trainPhase
4,6,A1,a,a,TRUE,1121,1,16023,trainPhase
5,6,B1,b,b,TRUE,2462,1,16023,trainPhase
6,6,B5,b,b,TRUE,1977,1,16023,trainPhase
7,6,A5,a,a,TRUE,2115,1,16023,trainPhase
8,6,A3,a,a,TRUE,1367,1,16023,trainPhase
9,6,A2,a,a,TRUE,1888,1,16023,trainPhase
10,6,A4,a,b,FALSE,4598,1,16023,trainPhase
11,6,B6,b,b,TRUE,5967,1,16023,trainPhase
0,7,B6,b,b,TRUE,2331,1,16023,trainPhase
1,7,B2,b,b,TRUE,1960,1,16023,trainPhase
2,7,A3,a,a,TRUE,1412,1,16023,trainPhase
3,7,B4,b,b,TRUE,3242,1,16023,trainPhase
4,7,A6,a,a,TRUE,1615,1,16023,trainPhase
5,7,A4,a,a,TRUE,1898,1,16023,trainPhase
6,7,A5,a,a,TRUE,2794,1,16023,trainPhase
7,7,B5,b,b,TRUE,2358,1,16023,trainPhase
8,7,A1,a,a,TRUE,7063,1,16023,trainPhase
9,7,B3,b,b,TRUE,3655,1,16023,trainPhase
10,7,B1,b,b,TRUE,1578,1,16023,trainPhase
11,7,A2,a,a,TRUE,3097,1,16023,trainPhase
0,8,B6,b,b,TRUE,3548,1,16023,trainPhase
1,8,A1,a,a,TRUE,1474,1,16023,trainPhase
2,8,A2,a,b,FALSE,7274,1,16023,trainPhase
3,8,B2,b,b,TRUE,2735,1,16023,trainPhase
4,8,B1,b,b,TRUE,1885,1,16023,trainPhase
5,8,A5,a,a,TRUE,2606,1,16023,trainPhase
6,8,B5,b,a,FALSE,2213,1,16023,trainPhase
7,8,A3,a,a,TRUE,1433,1,16023,trainPhase
8,8,B4,b,b,TRUE,4113,1,16023,trainPhase
9,8,B3,b,b,TRUE,2521,1,16023,trainPhase
10,8,A4,a,b,FALSE,1667,1,16023,trainPhase
11,8,A6,a,a,TRUE,2431,1,16023,trainPhase
0,9,B2,b,b,TRUE,1790,1,16023,trainPhase
1,9,A1,a,a,TRUE,2324,1,16023,trainPhase
2,9,A4,a,a,TRUE,1813,1,16023,trainPhase
3,9,B1,b,b,TRUE,2168,1,16023,trainPhase
4,9,B4,b,b,TRUE,1084,1,16023,trainPhase
5,9,B3,b,b,TRUE,5896,1,16023,trainPhase
6,9,B5,b,b,TRUE,1032,1,16023,trainPhase
7,9,A3,a,a,TRUE,1343,1,16023,trainPhase
8,9,A5,a,a,TRUE,1211,1,16023,trainPhase
9,9,A6,a,a,TRUE,1803,1,16023,trainPhase
10,9,B6,b,b,TRUE,2459,1,16023,trainPhase
11,9,A2,a,a,TRUE,2223,1,16023,trainPhase
0,10,B2,b,b,TRUE,5658,1,16023,trainPhase
1,10,B1,b,b,TRUE,6578,1,16023,trainPhase
2,10,B4,b,b,TRUE,1670,1,16023,trainPhase
0,0,B6,b,b,TRUE,3511,1,16024,trainPhase
1,0,A6,a,b,FALSE,1294,1,16024,trainPhase
2,0,A1,a,a,TRUE,1621,1,16024,trainPhase
3,0,B3,b,b,TRUE,1233,1,16024,trainPhase
4,0,B4,b,a,FALSE,1174,1,16024,trainPhase
5,0,A5,a,b,FALSE,1608,1,16024,trainPhase
6,0,B1,b,a,FALSE,1213,1,16024,trainPhase
7,0,A2,a,b,FALSE,1026,1,16024,trainPhase
8,0,B2,b,b,TRUE,1220,1,16024,trainPhase
9,0,B5,b,b,TRUE,1071,1,16024,trainPhase
10,0,A3,a,a,TRUE,812,1,16024,trainPhase
11,0,A4,a,b,FALSE,1000,1,16024,trainPhase
0,1,A2,a,a,TRUE,1080,1,16024,trainPhase
1,1,A4,a,a,TRUE,1478,1,16024,trainPhase
2,1,B6,b,b,TRUE,892,1,16024,trainPhase
3,1,A5,a,a,TRUE,816,1,16024,trainPhase
4,1,A1,a,a,TRUE,1124,1,16024,trainPhase
5,1,B4,b,b,TRUE,847,1,16024,trainPhase
6,1,B1,b,a,FALSE,746,1,16024,trainPhase
7,1,A6,a,b,FALSE,1030,1,16024,trainPhase
8,1,B5,b,b,TRUE,1019,1,16024,trainPhase
9,1,B2,b,a,FALSE,827,1,16024,trainPhase
10,1,B3,b,a,FALSE,1021,1,16024,trainPhase
11,1,A3,a,a,TRUE,1560,1,16024,trainPhase
0,2,B6,b,b,TRUE,843,1,16024,trainPhase
1,2,A1,a,a,TRUE,1047,1,16024,trainPhase
2,2,B4,b,b,TRUE,1101,1,16024,trainPhase
3,2,B5,b,b,TRUE,1167,1,16024,trainPhase
4,2,A5,a,a,TRUE,912,1,16024,trainPhase
5,2,A2,a,a,TRUE,1022,1,16024,trainPhase
6,2,B3,b,b,TRUE,1398,1,16024,trainPhase
7,2,A3,a,a,TRUE,1251,1,16024,trainPhase
8,2,B1,b,b,TRUE,1338,1,16024,trainPhase
9,2,A6,a,b,FALSE,987,1,16024,trainPhase
10,2,A4,a,a,TRUE,1418,1,16024,trainPhase
11,2,B2,b,a,FALSE,901,1,16024,trainPhase
0,3,B4,b,b,TRUE,727,1,16024,trainPhase
1,3,A1,a,a,TRUE,807,1,16024,trainPhase
2,3,A6,a,a,TRUE,1015,1,16024,trainPhase
3,3,A5,a,a,TRUE,758,1,16024,trainPhase
4,3,B2,b,a,FALSE,813,1,16024,trainPhase
5,3,B1,b,b,TRUE,1287,1,16024,trainPhase
6,3,B3,b,a,FALSE,1286,1,16024,trainPhase
7,3,A3,a,a,TRUE,1165,1,16024,trainPhase
8,3,A4,a,b,FALSE,1005,1,16024,trainPhase
9,3,B5,b,a,FALSE,767,1,16024,trainPhase
10,3,B6,b,b,TRUE,750,1,16024,trainPhase
11,3,A2,a,a,TRUE,794,1,16024,trainPhase
0,4,A1,a,a,TRUE,1243,1,16024,trainPhase
1,4,B4,b,a,FALSE,989,1,16024,trainPhase
2,4,A3,a,a,TRUE,1093,1,16024,trainPhase
3,4,B5,b,b,TRUE,953,1,16024,trainPhase
4,4,A2,a,a,TRUE,645,1,16024,trainPhase
5,4,A4,a,a,TRUE,913,1,16024,trainPhase
6,4,A5,a,a,TRUE,886,1,16024,trainPhase
7,4,B2,b,b,TRUE,855,1,16024,trainPhase
8,4,B6,b,b,TRUE,1078,1,16024,trainPhase
9,4,B3,b,a,FALSE,886,1,16024,trainPhase
10,4,B1,b,a,FALSE,1160,1,16024,trainPhase
11,4,A6,a,b,FALSE,672,1,16024,trainPhase
0,5,A5,a,a,TRUE,722,1,16024,trainPhase
1,5,B1,b,b,TRUE,753,1,16024,trainPhase
2,5,B4,b,b,TRUE,1065,1,16024,trainPhase
3,5,B6,b,b,TRUE,905,1,16024,trainPhase
4,5,A6,a,a,TRUE,814,1,16024,trainPhase
5,5,B5,b,b,TRUE,855,1,16024,trainPhase
6,5,B3,b,a,FALSE,599,1,16024,trainPhase
7,5,A2,a,b,FALSE,780,1,16024,trainPhase
8,5,A3,a,a,TRUE,862,1,16024,trainPhase
9,5,B2,b,b,TRUE,782,1,16024,trainPhase
10,5,A1,a,a,TRUE,693,1,16024,trainPhase
11,5,A4,a,b,FALSE,766,1,16024,trainPhase
0,6,A2,a,a,TRUE,1125,1,16024,trainPhase
1,6,B3,b,a,FALSE,920,1,16024,trainPhase
2,6,B2,b,b,TRUE,764,1,16024,trainPhase
3,6,A6,a,a,TRUE,1197,1,16024,trainPhase
4,6,B6,b,a,FALSE,749,1,16024,trainPhase
5,6,A3,a,b,FALSE,727,1,16024,trainPhase
6,6,A5,a,a,TRUE,574,1,16024,trainPhase
7,6,B5,b,a,FALSE,684,1,16024,trainPhase
8,6,B1,b,a,FALSE,696,1,16024,trainPhase
9,6,A1,a,b,FALSE,887,1,16024,trainPhase
10,6,B4,b,b,TRUE,1281,1,16024,trainPhase
11,6,A4,a,b,FALSE,987,1,16024,trainPhase
0,7,A6,a,a,TRUE,570,1,16024,trainPhase
1,7,A4,a,b,FALSE,493,1,16024,trainPhase
2,7,A1,a,a,TRUE,494,1,16024,trainPhase
3,7,B4,b,b,TRUE,1037,1,16024,trainPhase
4,7,B1,b,b,TRUE,1113,1,16024,trainPhase
5,7,B5,b,b,TRUE,957,1,16024,trainPhase
6,7,B3,b,b,TRUE,612,1,16024,trainPhase
7,7,A5,a,a,TRUE,1508,1,16024,trainPhase
8,7,A2,a,a,TRUE,892,1,16024,trainPhase
9,7,A3,a,a,TRUE,700,1,16024,trainPhase
10,7,B6,b,a,FALSE,983,1,16024,trainPhase
11,7,B2,b,a,FALSE,1086,1,16024,trainPhase
0,8,A2,a,a,TRUE,896,1,16024,trainPhase
1,8,B1,b,a,FALSE,1043,1,16024,trainPhase
2,8,B6,b,b,TRUE,671,1,16024,trainPhase
3,8,A3,a,a,TRUE,956,1,16024,trainPhase
4,8,A5,a,a,TRUE,958,1,16024,trainPhase
5,8,B3,b,a,FALSE,632,1,16024,trainPhase
6,8,B5,b,b,TRUE,1153,1,16024,trainPhase
7,8,B2,b,a,FALSE,616,1,16024,trainPhase
8,8,A4,a,b,FALSE,503,1,16024,trainPhase
9,8,B4,b,a,FALSE,425,1,16024,trainPhase
10,8,A6,a,b,FALSE,999,1,16024,trainPhase
11,8,A1,a,a,TRUE,904,1,16024,trainPhase
0,9,A5,a,a,TRUE,1149,1,16024,trainPhase
1,9,B6,b,b,TRUE,1456,1,16024,trainPhase
2,9,B3,b,a,FALSE,649,1,16024,trainPhase
3,9,A4,a,b,FALSE,2262,1,16024,trainPhase
4,9,A1,a,a,TRUE,482,1,16024,trainPhase
5,9,B5,b,b,TRUE,1103,1,16024,trainPhase
6,9,A3,a,a,TRUE,750,1,16024,trainPhase
7,9,B2,b,b,TRUE,1726,1,16024,trainPhase
8,9,B4,b,b,TRUE,962,1,16024,trainPhase
9,9,B1,b,a,FALSE,975,1,16024,trainPhase
10,9,A2,a,a,TRUE,1502,1,16024,trainPhase
11,9,A6,a,b,FALSE,908,1,16024,trainPhase
0,10,A3,a,a,TRUE,940,1,16024,trainPhase
1,10,B3,b,a,FALSE,925,1,16024,trainPhase
2,10,A5,a,a,TRUE,1398,1,16024,trainPhase
3,10,B4,b,b,TRUE,1288,1,16024,trainPhase
4,10,B1,b,a,FALSE,1142,1,16024,trainPhase
5,10,B2,b,a,FALSE,1793,1,16024,trainPhase
6,10,B5,b,b,TRUE,1165,1,16024,trainPhase
7,10,A4,a,b,FALSE,583,1,16024,trainPhase
8,10,A2,a,a,TRUE,1368,1,16024,trainPhase
9,10,B6,b,b,TRUE,882,1,16024,trainPhase
10,10,A6,a,a,TRUE,825,1,16024,trainPhase
11,10,A1,a,a,TRUE,1991,1,16024,trainPhase
0,11,B3,b,a,FALSE,1145,1,16024,trainPhase
1,11,A2,a,a,TRUE,1102,1,16024,trainPhase
2,11,A6,a,a,TRUE,1734,1,16024,trainPhase
3,11,A1,a,a,TRUE,1257,1,16024,trainPhase
4,11,B1,b,a,FALSE,1058,1,16024,trainPhase
5,11,B4,b,b,TRUE,593,1,16024,trainPhase
6,11,B6,b,b,TRUE,1181,1,16024,trainPhase
7,11,A5,a,b,FALSE,1604,1,16024,trainPhase
8,11,B2,b,b,TRUE,1182,1,16024,trainPhase
9,11,B5,b,b,TRUE,1504,1,16024,trainPhase
10,11,A4,a,b,FALSE,616,1,16024,trainPhase
11,11,A3,a,a,TRUE,654,1,16024,trainPhase
0,12,B6,b,b,TRUE,1373,1,16024,trainPhase
1,12,A5,a,a,TRUE,973,1,16024,trainPhase
2,12,A1,a,a,TRUE,1265,1,16024,trainPhase
3,12,A4,a,a,TRUE,1945,1,16024,trainPhase
4,12,B4,b,a,FALSE,469,1,16024,trainPhase
5,12,B2,b,a,FALSE,969,1,16024,trainPhase
6,12,A2,a,a,TRUE,629,1,16024,trainPhase
7,12,A3,a,a,TRUE,425,1,16024,trainPhase
8,12,B3,b,a,FALSE,567,1,16024,trainPhase
9,12,A6,a,b,FALSE,884,1,16024,trainPhase
10,12,B1,b,a,FALSE,579,1,16024,trainPhase
11,12,B5,b,b,TRUE,446,1,16024,trainPhase
0,13,B4,b,b,TRUE,1167,1,16024,trainPhase
1,13,A2,a,a,TRUE,1447,1,16024,trainPhase
2,13,B6,b,b,TRUE,1135,1,16024,trainPhase
3,13,A1,a,a,TRUE,842,1,16024,trainPhase
4,13,A5,a,a,TRUE,1726,1,16024,trainPhase
5,13,A6,a,b,FALSE,1253,1,16024,trainPhase
6,13,B2,b,a,FALSE,665,1,16024,trainPhase
7,13,B5,b,b,TRUE,907,1,16024,trainPhase
8,13,A4,a,a,TRUE,1139,1,16024,trainPhase
9,13,A3,a,a,TRUE,1462,1,16024,trainPhase
10,13,B1,b,a,FALSE,1740,1,16024,trainPhase
11,13,B3,b,b,TRUE,1184,1,16024,trainPhase
0,14,A1,a,a,TRUE,700,1,16024,trainPhase
1,14,B4,b,b,TRUE,1630,1,16024,trainPhase
2,14,A4,a,b,FALSE,878,1,16024,trainPhase
3,14,A3,a,a,TRUE,629,1,16024,trainPhase
4,14,B5,b,b,TRUE,658,1,16024,trainPhase
5,14,A6,a,b,FALSE,1205,1,16024,trainPhase
6,14,B2,b,a,FALSE,861,1,16024,trainPhase
7,14,A5,a,b,FALSE,618,1,16024,trainPhase
8,14,B6,b,b,TRUE,1270,1,16024,trainPhase
9,14,B1,b,a,FALSE,877,1,16024,trainPhase
10,14,A2,a,a,TRUE,1337,1,16024,trainPhase
11,14,B3,b,a,FALSE,1602,1,16024,trainPhase
0,0,B6,b,a,FALSE,9005,1,16025,trainPhase
1,0,A1,a,b,FALSE,1633,1,16025,trainPhase
2,0,A3,a,b,FALSE,8171,1,16025,trainPhase
3,0,A6,a,a,TRUE,2508,1,16025,trainPhase
4,0,B2,b,b,TRUE,2144,1,16025,trainPhase
5,0,B4,b,b,TRUE,1019,1,16025,trainPhase
6,0,B1,b,b,TRUE,1392,1,16025,trainPhase
7,0,A4,a,a,TRUE,2142,1,16025,trainPhase
8,0,B5,b,a,FALSE,978,1,16025,trainPhase
9,0,A2,a,b,FALSE,2046,1,16025,trainPhase
10,0,A5,a,a,TRUE,2624,1,16025,trainPhase
11,0,B3,b,a,FALSE,2529,1,16025,trainPhase
0,1,A1,a,b,FALSE,3269,1,16025,trainPhase
1,1,B4,b,b,TRUE,2572,1,16025,trainPhase
2,1,B1,b,b,TRUE,1527,1,16025,trainPhase
3,1,A6,a,a,TRUE,1110,1,16025,trainPhase
4,1,A2,a,a,TRUE,3682,1,16025,trainPhase
5,1,B6,b,b,TRUE,2120,1,16025,trainPhase
6,1,A5,a,a,TRUE,2607,1,16025,trainPhase
7,1,A4,a,a,TRUE,1401,1,16025,trainPhase
8,1,B3,b,a,FALSE,1087,1,16025,trainPhase
9,1,B5,b,b,TRUE,2422,1,16025,trainPhase
10,1,A3,a,b,FALSE,3478,1,16025,trainPhase
11,1,B2,b,b,TRUE,1146,1,16025,trainPhase
0,2,B4,b,b,TRUE,2139,1,16025,trainPhase
1,2,A6,a,a,TRUE,1032,1,16025,trainPhase
2,2,B2,b,b,TRUE,1647,1,16025,trainPhase
3,2,B1,b,b,TRUE,1102,1,16025,trainPhase
4,2,B6,b,a,FALSE,3604,1,16025,trainPhase
5,2,A3,a,a,TRUE,2178,1,16025,trainPhase
6,2,A1,a,a,TRUE,849,1,16025,trainPhase
7,2,A5,a,b,FALSE,1358,1,16025,trainPhase
8,2,B5,b,b,TRUE,1417,1,16025,trainPhase
9,2,A4,a,a,TRUE,2964,1,16025,trainPhase
10,2,A2,a,a,TRUE,1231,1,16025,trainPhase
11,2,B3,b,a,FALSE,3019,1,16025,trainPhase
0,3,A4,a,b,FALSE,1577,1,16025,trainPhase
1,3,A5,a,a,TRUE,1179,1,16025,trainPhase
2,3,A1,a,b,FALSE,915,1,16025,trainPhase
3,3,A6,a,a,TRUE,1400,1,16025,trainPhase
4,3,B3,b,a,FALSE,1703,1,16025,trainPhase
5,3,B5,b,b,TRUE,1936,1,16025,trainPhase
6,3,A3,a,a,TRUE,839,1,16025,trainPhase
7,3,B2,b,b,TRUE,1168,1,16025,trainPhase
8,3,A2,a,a,TRUE,1004,1,16025,trainPhase
9,3,B1,b,b,TRUE,2324,1,16025,trainPhase
10,3,B6,b,b,TRUE,1408,1,16025,trainPhase
11,3,B4,b,b,TRUE,1190,1,16025,trainPhase
0,4,A6,a,a,TRUE,1090,1,16025,trainPhase
1,4,B2,b,b,TRUE,1430,1,16025,trainPhase
2,4,B3,b,a,FALSE,1006,1,16025,trainPhase
3,4,B5,b,b,TRUE,871,1,16025,trainPhase
4,4,B4,b,b,TRUE,806,1,16025,trainPhase
5,4,A4,a,a,TRUE,1081,1,16025,trainPhase
6,4,A3,a,a,TRUE,1213,1,16025,trainPhase
7,4,A5,a,a,TRUE,1376,1,16025,trainPhase
8,4,A2,a,a,TRUE,1021,1,16025,trainPhase
9,4,A1,a,b,FALSE,2366,1,16025,trainPhase
10,4,B6,b,b,TRUE,1047,1,16025,trainPhase
11,4,B1,b,a,FALSE,1134,1,16025,trainPhase
0,5,A6,a,b,FALSE,1222,1,16025,trainPhase
1,5,A3,a,a,TRUE,886,1,16025,trainPhase
2,5,A4,a,a,TRUE,2982,1,16025,trainPhase
3,5,B4,b,a,FALSE,650,1,16025,trainPhase
4,5,B6,b,b,TRUE,1143,1,16025,trainPhase
5,5,A1,a,a,TRUE,1120,1,16025,trainPhase
6,5,B3,b,a,FALSE,2176,1,16025,trainPhase
7,5,A2,a,a,TRUE,961,1,16025,trainPhase
8,5,B1,b,b,TRUE,1135,1,16025,trainPhase
9,5,B2,b,b,TRUE,749,1,16025,trainPhase
10,5,A5,a,a,TRUE,1085,1,16025,trainPhase
11,5,B5,b,b,TRUE,864,1,16025,trainPhase
0,6,A1,a,b,FALSE,1609,1,16025,trainPhase
1,6,B2,b,b,TRUE,752,1,16025,trainPhase
2,6,B4,b,b,TRUE,1086,1,16025,trainPhase
3,6,B1,b,b,TRUE,965,1,16025,trainPhase
4,6,A4,a,a,TRUE,1239,1,16025,trainPhase
5,6,B3,b,a,FALSE,1064,1,16025,trainPhase
6,6,A3,a,a,TRUE,1014,1,16025,trainPhase
7,6,B5,b,b,TRUE,1215,1,16025,trainPhase
8,6,A5,a,a,TRUE,792,1,16025,trainPhase
9,6,A6,a,a,TRUE,1071,1,16025,trainPhase
10,6,B6,b,a,FALSE,1401,1,16025,trainPhase
11,6,A2,a,a,TRUE,1090,1,16025,trainPhase
0,7,B4,b,b,TRUE,1046,1,16025,trainPhase
1,7,B1,b,b,TRUE,1763,1,16025,trainPhase
2,7,A4,a,a,TRUE,3730,1,16025,trainPhase
3,7,A5,a,a,TRUE,1100,1,16025,trainPhase
4,7,A1,a,a,TRUE,2138,1,16025,trainPhase
5,7,B2,b,b,TRUE,1326,1,16025,trainPhase
6,7,A2,a,a,TRUE,1280,1,16025,trainPhase
7,7,B6,b,b,TRUE,3367,1,16025,trainPhase
8,7,B3,b,a,FALSE,1046,1,16025,trainPhase
9,7,A3,a,a,TRUE,695,1,16025,trainPhase
10,7,A6,a,a,TRUE,2614,1,16025,trainPhase
11,7,B5,b,b,TRUE,2342,1,16025,trainPhase
0,8,A3,a,a,TRUE,896,1,16025,trainPhase
1,8,B1,b,b,TRUE,1254,1,16025,trainPhase
2,8,A1,a,a,TRUE,2064,1,16025,trainPhase
3,8,B6,b,b,TRUE,927,1,16025,trainPhase
4,8,B5,b,b,TRUE,1544,1,16025,trainPhase
5,8,A2,a,a,TRUE,953,1,16025,trainPhase
6,8,A5,a,a,TRUE,1807,1,16025,trainPhase
7,8,B3,b,a,FALSE,3356,1,16025,trainPhase
8,8,B2,b,b,TRUE,991,1,16025,trainPhase
9,8,A6,a,b,FALSE,673,1,16025,trainPhase
10,8,A4,a,b,FALSE,771,1,16025,trainPhase
11,8,B4,b,a,FALSE,695,1,16025,trainPhase
0,9,B6,b,b,TRUE,616,1,16025,trainPhase
1,9,B2,b,b,TRUE,1166,1,16025,trainPhase
2,9,B4,b,b,TRUE,854,1,16025,trainPhase
3,9,B5,b,b,TRUE,1260,1,16025,trainPhase
4,9,A4,a,a,TRUE,1208,1,16025,trainPhase
5,9,A5,a,a,TRUE,712,1,16025,trainPhase
6,9,A3,a,a,TRUE,1511,1,16025,trainPhase
7,9,A2,a,a,TRUE,792,1,16025,trainPhase
8,9,A6,a,a,TRUE,1534,1,16025,trainPhase
9,9,A1,a,a,TRUE,811,1,16025,trainPhase
10,9,B1,b,b,TRUE,1213,1,16025,trainPhase
11,9,B3,b,a,FALSE,1206,1,16025,trainPhase
0,10,B3,b,b,TRUE,1191,1,16025,trainPhase
1,10,A1,a,a,TRUE,1635,1,16025,trainPhase
2,10,A2,a,a,TRUE,1103,1,16025,trainPhase
3,10,A4,a,b,FALSE,745,1,16025,trainPhase
4,10,B2,b,b,TRUE,1063,1,16025,trainPhase
5,10,B6,b,b,TRUE,700,1,16025,trainPhase
6,10,A5,a,a,TRUE,2265,1,16025,trainPhase
7,10,B1,b,b,TRUE,985,1,16025,trainPhase
8,10,B4,b,b,TRUE,1542,1,16025,trainPhase
9,10,A3,a,a,TRUE,880,1,16025,trainPhase
10,10,B5,b,b,TRUE,643,1,16025,trainPhase
11,10,A6,a,a,TRUE,1070,1,16025,trainPhase
0,11,A6,a,b,FALSE,1417,1,16025,trainPhase
1,11,A4,a,b,FALSE,1742,1,16025,trainPhase
2,11,B6,b,b,TRUE,1166,1,16025,trainPhase
3,11,A1,a,a,TRUE,681,1,16025,trainPhase
4,11,B4,b,b,TRUE,807,1,16025,trainPhase
5,11,B1,b,b,TRUE,1553,1,16025,trainPhase
6,11,B5,b,b,TRUE,1743,1,16025,trainPhase
7,11,B2,b,b,TRUE,873,1,16025,trainPhase
8,11,A3,a,a,TRUE,1424,1,16025,trainPhase
9,11,A2,a,a,TRUE,1355,1,16025,trainPhase
10,11,A5,a,a,TRUE,1398,1,16025,trainPhase
11,11,B3,b,a,FALSE,1295,1,16025,trainPhase
0,12,A6,a,a,TRUE,1456,1,16025,trainPhase
1,12,B3,b,a,FALSE,951,1,16025,trainPhase
2,12,A5,a,b,FALSE,1255,1,16025,trainPhase
3,12,A4,a,a,TRUE,813,1,16025,trainPhase
4,12,A1,a,b,FALSE,1406,1,16025,trainPhase
5,12,A3,a,a,TRUE,669,1,16025,trainPhase
6,12,B1,b,b,TRUE,832,1,16025,trainPhase
7,12,B6,b,b,TRUE,752,1,16025,trainPhase
8,12,B4,b,b,TRUE,1199,1,16025,trainPhase
9,12,B5,b,b,TRUE,742,1,16025,trainPhase
10,12,B2,b,b,TRUE,854,1,16025,trainPhase
11,12,A2,a,a,TRUE,846,1,16025,trainPhase
0,13,B2,b,b,TRUE,1233,1,16025,trainPhase
1,13,A5,a,a,TRUE,1560,1,16025,trainPhase
2,13,A1,a,a,TRUE,3338,1,16025,trainPhase
3,13,B4,b,b,TRUE,896,1,16025,trainPhase
4,13,B3,b,b,TRUE,1575,1,16025,trainPhase
5,13,A3,a,a,TRUE,807,1,16025,trainPhase
6,13,A2,a,a,TRUE,849,1,16025,trainPhase
7,13,A4,a,b,FALSE,1254,1,16025,trainPhase
8,13,B5,b,b,TRUE,1116,1,16025,trainPhase
9,13,A6,a,a,TRUE,1055,1,16025,trainPhase
10,13,B1,b,b,TRUE,1193,1,16025,trainPhase
11,13,B6,b,b,TRUE,774,1,16025,trainPhase
0,14,B1,b,b,TRUE,1214,1,16025,trainPhase
1,14,A2,a,a,TRUE,1456,1,16025,trainPhase
2,14,B5,b,b,TRUE,974,1,16025,trainPhase
3,14,A6,a,b,FALSE,1353,1,16025,trainPhase
4,14,B6,b,b,TRUE,973,1,16025,trainPhase
5,14,B2,b,b,TRUE,1561,1,16025,trainPhase
6,14,A1,a,b,FALSE,2133,1,16025,trainPhase
7,14,A3,a,a,TRUE,1880,1,16025,trainPhase
8,14,B3,b,a,FALSE,1296,1,16025,trainPhase
9,14,A5,a,b,FALSE,1120,1,16025,trainPhase
10,14,A4,a,a,TRUE,1216,1,16025,trainPhase
11,14,B4,b,b,TRUE,1280,1,16025,trainPhase
0,0,B1,b,b,TRUE,2712,1,16025,trainPhase
1,0,A1,a,a,TRUE,4463,1,16025,trainPhase
2,0,A2,a,a,TRUE,1176,1,16025,trainPhase
3,0,B3,b,b,TRUE,1698,1,16025,trainPhase
4,0,B4,b,b,TRUE,847,1,16025,trainPhase
5,0,A6,a,a,TRUE,1223,1,16025,trainPhase
6,0,B2,b,b,TRUE,742,1,16025,trainPhase
7,0,B6,b,b,TRUE,1249,1,16025,trainPhase
8,0,A5,a,a,TRUE,1183,1,16025,trainPhase
9,0,A4,a,a,TRUE,1510,1,16025,trainPhase
10,0,B5,b,b,TRUE,494,1,16025,trainPhase
11,0,A3,a,a,TRUE,631,1,16025,trainPhase
0,1,B5,b,b,TRUE,511,1,16025,trainPhase
1,1,A1,a,a,TRUE,663,1,16025,trainPhase
2,1,B1,b,b,TRUE,894,1,16025,trainPhase
3,1,A4,a,a,TRUE,625,1,16025,trainPhase
0,0,B3,b,a,FALSE,3138,1,16026,trainPhase
1,0,A6,a,b,FALSE,1137,1,16026,trainPhase
2,0,A4,a,b,FALSE,1860,1,16026,trainPhase
3,0,A5,a,a,TRUE,2556,1,16026,trainPhase
4,0,B5,b,b,TRUE,1236,1,16026,trainPhase
5,0,A1,a,a,TRUE,1021,1,16026,trainPhase
6,0,A3,a,b,FALSE,1040,1,16026,trainPhase
7,0,B6,b,b,TRUE,745,1,16026,trainPhase
8,0,B1,b,b,TRUE,1896,1,16026,trainPhase
9,0,A2,a,b,FALSE,876,1,16026,trainPhase
10,0,B4,b,b,TRUE,877,1,16026,trainPhase
11,0,B2,b,b,TRUE,846,1,16026,trainPhase
0,1,B6,b,b,TRUE,933,1,16026,trainPhase
1,1,B1,b,a,FALSE,1020,1,16026,trainPhase
2,1,A2,a,a,TRUE,806,1,16026,trainPhase
3,1,A5,a,a,TRUE,785,1,16026,trainPhase
4,1,B4,b,b,TRUE,868,1,16026,trainPhase
5,1,B5,b,b,TRUE,805,1,16026,trainPhase
6,1,B2,b,b,TRUE,1196,1,16026,trainPhase
7,1,A4,a,b,FALSE,1220,1,16026,trainPhase
8,1,A1,a,a,TRUE,1006,1,16026,trainPhase
9,1,A6,a,a,TRUE,1827,1,16026,trainPhase
10,1,A3,a,a,TRUE,991,1,16026,trainPhase
11,1,B3,b,a,FALSE,815,1,16026,trainPhase
0,2,A2,a,a,TRUE,815,1,16026,trainPhase
1,2,B6,b,b,TRUE,1076,1,16026,trainPhase
2,2,A6,a,b,FALSE,854,1,16026,trainPhase
3,2,A1,a,a,TRUE,2267,1,16026,trainPhase
4,2,B2,b,b,TRUE,1139,1,16026,trainPhase
5,2,B1,b,a,FALSE,1349,1,16026,trainPhase
6,2,A4,a,b,FALSE,2404,1,16026,trainPhase
7,2,B3,b,a,FALSE,1424,1,16026,trainPhase
8,2,B5,b,b,TRUE,911,1,16026,trainPhase
9,2,A3,a,a,TRUE,726,1,16026,trainPhase
10,2,A5,a,a,TRUE,1050,1,16026,trainPhase
11,2,B4,b,b,TRUE,1032,1,16026,trainPhase
0,3,A1,a,a,TRUE,765,1,16026,trainPhase
1,3,B3,b,a,FALSE,1178,1,16026,trainPhase
2,3,B6,b,b,TRUE,1011,1,16026,trainPhase
3,3,B1,b,a,FALSE,1567,1,16026,trainPhase
4,3,B4,b,b,TRUE,656,1,16026,trainPhase
5,3,A3,a,b,FALSE,1128,1,16026,trainPhase
6,3,A5,a,a,TRUE,1134,1,16026,trainPhase
7,3,A6,a,b,FALSE,879,1,16026,trainPhase
8,3,A2,a,a,TRUE,987,1,16026,trainPhase
9,3,A4,a,a,TRUE,1010,1,16026,trainPhase
10,3,B2,b,a,FALSE,1395,1,16026,trainPhase
11,3,B5,b,b,TRUE,1157,1,16026,trainPhase
0,4,B5,b,b,TRUE,560,1,16026,trainPhase
1,4,A3,a,a,TRUE,724,1,16026,trainPhase
2,4,B6,b,b,TRUE,2056,1,16026,trainPhase
3,4,A1,a,a,TRUE,717,1,16026,trainPhase
4,4,B1,b,a,FALSE,797,1,16026,trainPhase
5,4,A5,a,a,TRUE,2880,1,16026,trainPhase
6,4,B3,b,a,FALSE,2593,1,16026,trainPhase
7,4,A4,a,a,TRUE,976,1,16026,trainPhase
8,4,B4,b,b,TRUE,743,1,16026,trainPhase
9,4,B2,b,b,TRUE,767,1,16026,trainPhase
10,4,A2,a,a,TRUE,897,1,16026,trainPhase
11,4,A6,a,b,FALSE,2226,1,16026,trainPhase
0,5,B2,b,a,FALSE,922,1,16026,trainPhase
1,5,A6,a,a,TRUE,646,1,16026,trainPhase
2,5,B5,b,b,TRUE,676,1,16026,trainPhase
3,5,B4,b,b,TRUE,699,1,16026,trainPhase
4,5,A2,a,a,TRUE,743,1,16026,trainPhase
5,5,B1,b,a,FALSE,693,1,16026,trainPhase
6,5,B6,b,b,TRUE,2719,1,16026,trainPhase
7,5,B3,b,a,FALSE,752,1,16026,trainPhase
8,5,A4,a,a,TRUE,711,1,16026,trainPhase
9,5,A5,a,a,TRUE,1197,1,16026,trainPhase
10,5,A3,a,a,TRUE,1263,1,16026,trainPhase
11,5,A1,a,a,TRUE,784,1,16026,trainPhase
0,6,B3,b,a,FALSE,1446,1,16026,trainPhase
1,6,A4,a,b,FALSE,919,1,16026,trainPhase
2,6,A2,a,a,TRUE,609,1,16026,trainPhase
3,6,B5,b,b,TRUE,1093,1,16026,trainPhase
4,6,B2,b,b,TRUE,1010,1,16026,trainPhase
5,6,A3,a,a,TRUE,824,1,16026,trainPhase
6,6,B4,b,b,TRUE,754,1,16026,trainPhase
7,6,A1,a,a,TRUE,808,1,16026,trainPhase
8,6,B1,b,b,TRUE,1641,1,16026,trainPhase
9,6,B6,b,b,TRUE,925,1,16026,trainPhase
10,6,A5,a,a,TRUE,1799,1,16026,trainPhase
11,6,A6,a,b,FALSE,1493,1,16026,trainPhase
0,7,A6,a,a,TRUE,630,1,16026,trainPhase
1,7,B3,b,a,FALSE,877,1,16026,trainPhase
2,7,B5,b,b,TRUE,888,1,16026,trainPhase
3,7,A3,a,a,TRUE,724,1,16026,trainPhase
4,7,B6,b,b,TRUE,1085,1,16026,trainPhase
5,7,A5,a,a,TRUE,951,1,16026,trainPhase
6,7,B2,b,b,TRUE,931,1,16026,trainPhase
7,7,A4,a,a,TRUE,1215,1,16026,trainPhase
8,7,A2,a,a,TRUE,1038,1,16026,trainPhase
9,7,A1,a,a,TRUE,847,1,16026,trainPhase
10,7,B4,b,b,TRUE,945,1,16026,trainPhase
11,7,B1,b,b,TRUE,1042,1,16026,trainPhase
0,8,A1,a,a,TRUE,1042,1,16026,trainPhase
1,8,B6,b,b,TRUE,974,1,16026,trainPhase
2,8,B1,b,a,FALSE,1647,1,16026,trainPhase
3,8,B5,b,b,TRUE,688,1,16026,trainPhase
4,8,B3,b,b,TRUE,1485,1,16026,trainPhase
5,8,B4,b,b,TRUE,787,1,16026,trainPhase
6,8,A5,a,a,TRUE,807,1,16026,trainPhase
7,8,A6,a,a,TRUE,1191,1,16026,trainPhase
8,8,B2,b,a,FALSE,784,1,16026,trainPhase
9,8,A2,a,a,TRUE,1511,1,16026,trainPhase
10,8,A3,a,a,TRUE,755,1,16026,trainPhase
11,8,A4,a,b,FALSE,813,1,16026,trainPhase
0,9,B4,b,b,TRUE,507,1,16026,trainPhase
1,9,A5,a,a,TRUE,904,1,16026,trainPhase
2,9,B6,b,a,FALSE,798,1,16026,trainPhase
3,9,A6,a,b,FALSE,1548,1,16026,trainPhase
4,9,A4,a,a,TRUE,1575,1,16026,trainPhase
5,9,B5,b,b,TRUE,1006,1,16026,trainPhase
6,9,A3,a,a,TRUE,717,1,16026,trainPhase
7,9,B3,b,a,FALSE,1113,1,16026,trainPhase
8,9,B2,b,b,TRUE,1262,1,16026,trainPhase
9,9,B1,b,b,TRUE,908,1,16026,trainPhase
10,9,A2,a,a,TRUE,875,1,16026,trainPhase
11,9,A1,a,a,TRUE,679,1,16026,trainPhase
0,10,B1,b,b,TRUE,1064,1,16026,trainPhase
1,10,A2,a,a,TRUE,719,1,16026,trainPhase
2,10,A6,a,b,FALSE,944,1,16026,trainPhase
3,10,B2,b,b,TRUE,839,1,16026,trainPhase
4,10,A1,a,a,TRUE,985,1,16026,trainPhase
5,10,A5,a,a,TRUE,744,1,16026,trainPhase
6,10,B4,b,b,TRUE,847,1,16026,trainPhase
7,10,A3,a,a,TRUE,722,1,16026,trainPhase
8,10,B6,b,a,FALSE,1184,1,16026,trainPhase
9,10,B5,b,b,TRUE,598,1,16026,trainPhase
10,10,B3,b,a,FALSE,793,1,16026,trainPhase
11,10,A4,a,b,FALSE,575,1,16026,trainPhase
0,11,B5,b,a,FALSE,426,1,16026,trainPhase
1,11,B3,b,a,FALSE,776,1,16026,trainPhase
2,11,A3,a,a,TRUE,1021,1,16026,trainPhase
3,11,B2,b,b,TRUE,1023,1,16026,trainPhase
4,11,A6,a,b,FALSE,1106,1,16026,trainPhase
5,11,B6,b,b,TRUE,1457,1,16026,trainPhase
6,11,B1,b,a,FALSE,730,1,16026,trainPhase
7,11,A1,a,a,TRUE,671,1,16026,trainPhase
8,11,A4,a,b,FALSE,1068,1,16026,trainPhase
9,11,A5,a,a,TRUE,478,1,16026,trainPhase
10,11,A2,a,a,TRUE,881,1,16026,trainPhase
11,11,B4,b,b,TRUE,816,1,16026,trainPhase
0,12,B2,b,b,TRUE,590,1,16026,trainPhase
1,12,B1,b,b,TRUE,989,1,16026,trainPhase
2,12,B3,b,a,FALSE,841,1,16026,trainPhase
3,12,A3,a,a,TRUE,606,1,16026,trainPhase
4,12,B6,b,b,TRUE,987,1,16026,trainPhase
5,12,B4,b,b,TRUE,1555,1,16026,trainPhase
6,12,A4,a,b,FALSE,646,1,16026,trainPhase
7,12,A6,a,b,FALSE,1041,1,16026,trainPhase
8,12,A1,a,a,TRUE,792,1,16026,trainPhase
9,12,A5,a,a,TRUE,929,1,16026,trainPhase
10,12,B5,b,b,TRUE,1281,1,16026,trainPhase
11,12,A2,a,a,TRUE,623,1,16026,trainPhase
0,13,A4,a,a,TRUE,1156,1,16026,trainPhase
1,13,A2,a,a,TRUE,962,1,16026,trainPhase
2,13,B3,b,b,TRUE,921,1,16026,trainPhase
3,13,B5,b,b,TRUE,548,1,16026,trainPhase
4,13,B4,b,b,TRUE,457,1,16026,trainPhase
5,13,A1,a,a,TRUE,729,1,16026,trainPhase
6,13,B2,b,b,TRUE,1961,1,16026,trainPhase
7,13,A6,a,b,FALSE,1470,1,16026,trainPhase
8,13,A3,a,a,TRUE,668,1,16026,trainPhase
9,13,B6,b,b,TRUE,1041,1,16026,trainPhase
10,13,A5,a,a,TRUE,857,1,16026,trainPhase
11,13,B1,b,a,FALSE,746,1,16026,trainPhase
0,14,B2,b,b,TRUE,907,1,16026,trainPhase
1,14,A2,a,a,TRUE,1553,1,16026,trainPhase
2,14,B4,b,b,TRUE,1018,1,16026,trainPhase
3,14,A1,a,a,TRUE,667,1,16026,trainPhase
4,14,A6,a,b,FALSE,1660,1,16026,trainPhase
5,14,A3,a,a,TRUE,1186,1,16026,trainPhase
6,14,B6,b,b,TRUE,722,1,16026,trainPhase
7,14,B3,b,a,FALSE,2151,1,16026,trainPhase
8,14,A4,a,b,FALSE,863,1,16026,trainPhase
9,14,B1,b,a,FALSE,1110,1,16026,trainPhase
10,14,A5,a,b,FALSE,737,1,16026,trainPhase
11,14,B5,b,b,TRUE,934,1,16026,trainPhase
0,0,B3,b,a,FALSE,3910,1,16009,trainPhase
1,0,B1,b,b,TRUE,1371,1,16009,trainPhase
2,0,A4,a,b,FALSE,1145,1,16009,trainPhase
3,0,B6,b,a,FALSE,1730,1,16009,trainPhase
4,0,B5,b,b,TRUE,1392,1,16009,trainPhase
5,0,A2,a,a,TRUE,1158,1,16009,trainPhase
6,0,A1,a,a,TRUE,1282,1,16009,trainPhase
7,0,A6,a,b,FALSE,1075,1,16009,trainPhase
8,0,B4,b,b,TRUE,1185,1,16009,trainPhase
9,0,B2,b,b,TRUE,814,1,16009,trainPhase
10,0,A3,a,a,TRUE,1146,1,16009,trainPhase
11,0,A5,a,b,FALSE,1478,1,16009,trainPhase
0,1,B4,b,b,TRUE,1907,1,16009,trainPhase
1,1,B2,b,b,TRUE,1021,1,16009,trainPhase
2,1,B5,b,a,FALSE,1790,1,16009,trainPhase
3,1,B6,b,a,FALSE,1652,1,16009,trainPhase
4,1,B1,b,b,TRUE,1656,1,16009,trainPhase
5,1,A1,a,a,TRUE,1292,1,16009,trainPhase
6,1,A5,a,a,TRUE,3618,1,16009,trainPhase
7,1,A2,a,a,TRUE,1761,1,16009,trainPhase
8,1,A6,a,b,FALSE,1407,1,16009,trainPhase
9,1,A3,a,a,TRUE,1105,1,16009,trainPhase
10,1,B3,b,a,FALSE,2751,1,16009,trainPhase
11,1,A4,a,b,FALSE,2312,1,16009,trainPhase
0,2,A4,a,b,FALSE,2734,1,16009,trainPhase
1,2,A1,a,a,TRUE,1217,1,16009,trainPhase
2,2,B1,b,b,TRUE,2337,1,16009,trainPhase
3,2,B6,b,b,TRUE,3560,1,16009,trainPhase
4,2,A2,a,a,TRUE,1375,1,16009,trainPhase
5,2,A5,a,a,TRUE,5791,1,16009,trainPhase
6,2,B5,b,b,TRUE,1886,1,16009,trainPhase
7,2,B2,b,b,TRUE,1545,1,16009,trainPhase
8,2,B4,b,b,TRUE,2276,1,16009,trainPhase
9,2,A3,a,a,TRUE,1830,1,16009,trainPhase
10,2,A6,a,b,FALSE,1574,1,16009,trainPhase
11,2,B3,b,b,TRUE,1858,1,16009,trainPhase
0,3,A4,a,b,FALSE,1028,1,16009,trainPhase
1,3,B3,b,a,FALSE,3524,1,16009,trainPhase
2,3,B2,b,b,TRUE,1345,1,16009,trainPhase
3,3,A1,a,a,TRUE,2587,1,16009,trainPhase
4,3,A2,a,a,TRUE,2156,1,16009,trainPhase
5,3,B1,b,b,TRUE,1362,1,16009,trainPhase
6,3,A5,a,a,TRUE,1985,1,16009,trainPhase
7,3,B6,b,b,TRUE,1975,1,16009,trainPhase
8,3,B4,b,a,FALSE,1624,1,16009,trainPhase
9,3,A3,a,a,TRUE,986,1,16009,trainPhase
10,3,B5,b,b,TRUE,892,1,16009,trainPhase
11,3,A6,a,a,TRUE,2324,1,16009,trainPhase
0,4,B3,b,a,FALSE,1678,1,16009,trainPhase
1,4,A4,a,b,FALSE,1383,1,16009,trainPhase
2,4,B4,b,b,TRUE,1016,1,16009,trainPhase
3,4,B6,b,b,TRUE,1866,1,16009,trainPhase
4,4,A1,a,a,TRUE,1247,1,16009,trainPhase
5,4,B1,b,a,FALSE,7829,1,16009,trainPhase
6,4,A2,a,a,TRUE,1267,1,16009,trainPhase
7,4,B5,b,b,TRUE,1606,1,16009,trainPhase
8,4,A3,a,a,TRUE,1669,1,16009,trainPhase
9,4,B2,b,b,TRUE,1053,1,16009,trainPhase
10,4,A5,a,b,FALSE,1856,1,16009,trainPhase
11,4,A6,a,a,TRUE,2050,1,16009,trainPhase
0,5,A4,a,a,TRUE,1495,1,16009,trainPhase
1,5,A2,a,a,TRUE,3076,1,16009,trainPhase
2,5,B5,b,b,TRUE,1002,1,16009,trainPhase
3,5,B6,b,b,TRUE,1447,1,16009,trainPhase
4,5,A5,a,a,TRUE,1367,1,16009,trainPhase
5,5,A3,a,a,TRUE,2297,1,16009,trainPhase
6,5,B1,b,b,TRUE,1399,1,16009,trainPhase
7,5,A1,a,a,TRUE,5020,1,16009,trainPhase
8,5,B4,b,b,TRUE,1583,1,16009,trainPhase
9,5,B2,b,b,TRUE,2136,1,16009,trainPhase
10,5,B3,b,a,FALSE,2419,1,16009,trainPhase
11,5,A6,a,b,FALSE,1466,1,16009,trainPhase
0,6,B4,b,b,TRUE,1135,1,16009,trainPhase
1,6,B6,b,b,TRUE,1502,1,16009,trainPhase
2,6,B5,b,b,TRUE,1421,1,16009,trainPhase
3,6,B1,b,b,TRUE,2120,1,16009,trainPhase
4,6,A2,a,a,TRUE,1272,1,16009,trainPhase
5,6,B2,b,b,TRUE,1761,1,16009,trainPhase
6,6,A6,a,b,FALSE,1752,1,16009,trainPhase
7,6,A4,a,b,FALSE,3376,1,16009,trainPhase
8,6,B3,b,a,FALSE,1232,1,16009,trainPhase
9,6,A3,a,a,TRUE,1070,1,16009,trainPhase
10,6,A5,a,a,TRUE,1617,1,16009,trainPhase
11,6,A1,a,a,TRUE,990,1,16009,trainPhase
0,7,B5,b,b,TRUE,901,1,16009,trainPhase
1,7,A4,a,b,FALSE,3820,1,16009,trainPhase
2,7,A5,a,a,TRUE,845,1,16009,trainPhase
3,7,B3,b,a,FALSE,938,1,16009,trainPhase
4,7,B1,b,b,TRUE,1036,1,16009,trainPhase
5,7,B6,b,b,TRUE,973,1,16009,trainPhase
6,7,A6,a,b,FALSE,3132,1,16009,trainPhase
7,7,B2,b,b,TRUE,1231,1,16009,trainPhase
8,7,B4,b,b,TRUE,879,1,16009,trainPhase
9,7,A3,a,a,TRUE,894,1,16009,trainPhase
10,7,A2,a,a,TRUE,1503,1,16009,trainPhase
11,7,A1,a,a,TRUE,1226,1,16009,trainPhase
0,8,A1,a,a,TRUE,1715,1,16009,trainPhase
1,8,A4,a,b,FALSE,967,1,16009,trainPhase
2,8,A5,a,b,FALSE,3480,1,16009,trainPhase
3,8,A6,a,b,FALSE,1121,1,16009,trainPhase
4,8,B2,b,b,TRUE,823,1,16009,trainPhase
5,8,B3,b,a,FALSE,1859,1,16009,trainPhase
6,8,B5,b,b,TRUE,1101,1,16009,trainPhase
7,8,B1,b,b,TRUE,2875,1,16009,trainPhase
8,8,A2,a,a,TRUE,1326,1,16009,trainPhase
9,8,A3,a,a,TRUE,1556,1,16009,trainPhase
10,8,B4,b,b,TRUE,2018,1,16009,trainPhase
11,8,B6,b,b,TRUE,1452,1,16009,trainPhase
0,9,B6,b,b,TRUE,1656,1,16009,trainPhase
1,9,A4,a,b,FALSE,1779,1,16009,trainPhase
2,9,A6,a,a,TRUE,2356,1,16009,trainPhase
3,9,B3,b,b,TRUE,2873,1,16009,trainPhase
4,9,A2,a,a,TRUE,1910,1,16009,trainPhase
5,9,A5,a,a,TRUE,2720,1,16009,trainPhase
6,9,B4,b,b,TRUE,2820,1,16009,trainPhase
7,9,B5,b,b,TRUE,1707,1,16009,trainPhase
8,9,B2,b,b,TRUE,1165,1,16009,trainPhase
9,9,A1,a,a,TRUE,1698,1,16009,trainPhase
10,9,A3,a,a,TRUE,1575,1,16009,trainPhase
11,9,B1,b,b,TRUE,1337,1,16009,trainPhase
0,10,A5,a,a,TRUE,2492,1,16009,trainPhase
1,10,B3,b,b,TRUE,2702,1,16009,trainPhase
2,10,B5,b,b,TRUE,1788,1,16009,trainPhase
3,10,B6,b,b,TRUE,1756,1,16009,trainPhase
4,10,B4,b,b,TRUE,8834,1,16009,trainPhase
5,10,A1,a,a,TRUE,1301,1,16009,trainPhase
0,0,A6,a,a,TRUE,3394,1,16027,trainPhase
1,0,B5,b,b,TRUE,2401,1,16027,trainPhase
2,0,B2,b,b,TRUE,1327,1,16027,trainPhase
3,0,A4,a,a,TRUE,1186,1,16027,trainPhase
4,0,A3,a,a,TRUE,1174,1,16027,trainPhase
5,0,A1,a,b,FALSE,1141,1,16027,trainPhase
6,0,A5,a,a,TRUE,1300,1,16027,trainPhase
7,0,B3,b,a,FALSE,1055,1,16027,trainPhase
8,0,A2,a,b,FALSE,2435,1,16027,trainPhase
9,0,B1,b,b,TRUE,1249,1,16027,trainPhase
10,0,B6,b,a,FALSE,1275,1,16027,trainPhase
11,0,B4,b,b,TRUE,3559,1,16027,trainPhase
0,1,A4,a,b,FALSE,1645,1,16027,trainPhase
1,1,B6,b,b,TRUE,1639,1,16027,trainPhase
2,1,A5,a,a,TRUE,1104,1,16027,trainPhase
3,1,B4,b,b,TRUE,1150,1,16027,trainPhase
4,1,B3,b,a,FALSE,1072,1,16027,trainPhase
5,1,A6,a,a,TRUE,1374,1,16027,trainPhase
6,1,A3,a,a,TRUE,2127,1,16027,trainPhase
7,1,B1,b,b,TRUE,1181,1,16027,trainPhase
8,1,B2,b,b,TRUE,2463,1,16027,trainPhase
9,1,B5,b,a,FALSE,2638,1,16027,trainPhase
10,1,A1,a,a,TRUE,1919,1,16027,trainPhase
11,1,A2,a,a,TRUE,1759,1,16027,trainPhase
0,2,A5,a,a,TRUE,1085,1,16027,trainPhase
1,2,B5,b,a,FALSE,1515,1,16027,trainPhase
2,2,A1,a,a,TRUE,3754,1,16027,trainPhase
3,2,A2,a,b,FALSE,1216,1,16027,trainPhase
4,2,B3,b,a,FALSE,1892,1,16027,trainPhase
5,2,A3,a,a,TRUE,1707,1,16027,trainPhase
6,2,B2,b,b,TRUE,1130,1,16027,trainPhase
7,2,B6,b,a,FALSE,2128,1,16027,trainPhase
8,2,A6,a,a,TRUE,1052,1,16027,trainPhase
9,2,B4,b,b,TRUE,1056,1,16027,trainPhase
10,2,B1,b,b,TRUE,3250,1,16027,trainPhase
11,2,A4,a,a,TRUE,1305,1,16027,trainPhase
0,3,B1,b,b,TRUE,990,1,16027,trainPhase
1,3,B4,b,a,FALSE,1279,1,16027,trainPhase
2,3,B3,b,a,FALSE,1468,1,16027,trainPhase
3,3,B2,b,b,TRUE,2804,1,16027,trainPhase
4,3,B6,b,a,FALSE,960,1,16027,trainPhase
5,3,A1,a,a,TRUE,2869,1,16027,trainPhase
6,3,A4,a,a,TRUE,4912,1,16027,trainPhase
7,3,A2,a,b,FALSE,2800,1,16027,trainPhase
8,3,A6,a,a,TRUE,1196,1,16027,trainPhase
9,3,A5,a,b,FALSE,1812,1,16027,trainPhase
10,3,B5,b,a,FALSE,1128,1,16027,trainPhase
11,3,A3,a,a,TRUE,1451,1,16027,trainPhase
0,4,B1,b,b,TRUE,1126,1,16027,trainPhase
1,4,A6,a,a,TRUE,1050,1,16027,trainPhase
2,4,B5,b,a,FALSE,1222,1,16027,trainPhase
3,4,A5,a,a,TRUE,2014,1,16027,trainPhase
4,4,A2,a,a,TRUE,899,1,16027,trainPhase
5,4,A3,a,a,TRUE,913,1,16027,trainPhase
6,4,A1,a,a,TRUE,1069,1,16027,trainPhase
7,4,B2,b,b,TRUE,1300,1,16027,trainPhase
8,4,B4,b,b,TRUE,1021,1,16027,trainPhase
9,4,A4,a,b,FALSE,1654,1,16027,trainPhase
10,4,B6,b,a,FALSE,1085,1,16027,trainPhase
11,4,B3,b,a,FALSE,1164,1,16027,trainPhase
0,5,A4,a,a,TRUE,6609,1,16027,trainPhase
1,5,A2,a,b,FALSE,2451,1,16027,trainPhase
2,5,B1,b,b,TRUE,5433,1,16027,trainPhase
3,5,B4,b,a,FALSE,3586,1,16027,trainPhase
4,5,B3,b,a,FALSE,2507,1,16027,trainPhase
5,5,A6,a,a,TRUE,5056,1,16027,trainPhase
6,5,B2,b,b,TRUE,2203,1,16027,trainPhase
7,5,A1,a,a,TRUE,2173,1,16027,trainPhase
8,5,A5,a,a,TRUE,1771,1,16027,trainPhase
9,5,B5,b,b,TRUE,1767,1,16027,trainPhase
10,5,A3,a,a,TRUE,979,1,16027,trainPhase
11,5,B6,b,b,TRUE,3893,1,16027,trainPhase
0,6,A2,a,a,TRUE,1887,1,16027,trainPhase
1,6,B5,b,b,TRUE,1727,1,16027,trainPhase
2,6,A1,a,a,TRUE,1318,1,16027,trainPhase
3,6,B1,b,b,TRUE,3719,1,16027,trainPhase
4,6,A3,a,a,TRUE,1492,1,16027,trainPhase
5,6,A4,a,b,FALSE,2065,1,16027,trainPhase
6,6,A6,a,a,TRUE,2295,1,16027,trainPhase
7,6,B2,b,b,TRUE,1332,1,16027,trainPhase
8,6,B6,b,a,FALSE,3799,1,16027,trainPhase
9,6,A5,a,a,TRUE,1091,1,16027,trainPhase
10,6,B3,b,a,FALSE,1453,1,16027,trainPhase
11,6,B4,b,b,TRUE,962,1,16027,trainPhase
0,7,B2,b,a,FALSE,1971,1,16027,trainPhase
1,7,A6,a,a,TRUE,1183,1,16027,trainPhase
2,7,B3,b,a,FALSE,1055,1,16027,trainPhase
3,7,A4,a,a,TRUE,1150,1,16027,trainPhase
4,7,B1,b,b,TRUE,1333,1,16027,trainPhase
5,7,A1,a,a,TRUE,1051,1,16027,trainPhase
6,7,B4,b,b,TRUE,1123,1,16027,trainPhase
7,7,A2,a,a,TRUE,994,1,16027,trainPhase
8,7,B6,b,b,TRUE,2855,1,16027,trainPhase
9,7,A5,a,a,TRUE,924,1,16027,trainPhase
10,7,A3,a,a,TRUE,946,1,16027,trainPhase
11,7,B5,b,b,TRUE,1830,1,16027,trainPhase
0,8,B4,b,b,TRUE,918,1,16027,trainPhase
1,8,A6,a,a,TRUE,1165,1,16027,trainPhase
2,8,B2,b,b,TRUE,1094,1,16027,trainPhase
3,8,B6,b,b,TRUE,1655,1,16027,trainPhase
4,8,A5,a,a,TRUE,911,1,16027,trainPhase
5,8,B5,b,b,TRUE,1215,1,16027,trainPhase
6,8,B1,b,b,TRUE,1064,1,16027,trainPhase
0,0,A3,a,a,TRUE,6073,1,16028,trainPhase
1,0,A6,a,b,FALSE,6145,1,16028,trainPhase
2,0,B5,b,a,FALSE,3866,1,16028,trainPhase
3,0,A2,a,a,TRUE,2433,1,16028,trainPhase
4,0,B1,b,b,TRUE,2523,1,16028,trainPhase
5,0,A4,a,a,TRUE,2129,1,16028,trainPhase
6,0,B6,b,a,FALSE,3403,1,16028,trainPhase
7,0,B3,b,a,FALSE,1919,1,16028,trainPhase
8,0,A1,a,b,FALSE,2446,1,16028,trainPhase
9,0,A5,a,a,TRUE,2556,1,16028,trainPhase
10,0,B4,b,b,TRUE,2783,1,16028,trainPhase
11,0,B2,b,b,TRUE,3628,1,16028,trainPhase
0,1,A5,a,a,TRUE,2344,1,16028,trainPhase
1,1,B4,b,b,TRUE,1980,1,16028,trainPhase
2,1,B5,b,a,FALSE,3922,1,16028,trainPhase
3,1,A2,a,b,FALSE,2743,1,16028,trainPhase
4,1,B1,b,b,TRUE,1219,1,16028,trainPhase
5,1,A4,a,b,FALSE,3126,1,16028,trainPhase
6,1,B6,b,a,FALSE,1504,1,16028,trainPhase
7,1,A1,a,a,TRUE,1615,1,16028,trainPhase
8,1,B3,b,a,FALSE,5439,1,16028,trainPhase
9,1,B2,b,b,TRUE,1056,1,16028,trainPhase
10,1,A3,a,a,TRUE,886,1,16028,trainPhase
11,1,A6,a,a,TRUE,1155,1,16028,trainPhase
0,2,B6,b,b,TRUE,7603,1,16028,trainPhase
1,2,A4,a,a,TRUE,3596,1,16028,trainPhase
2,2,B3,b,a,FALSE,2143,1,16028,trainPhase
3,2,A3,a,a,TRUE,1571,1,16028,trainPhase
4,2,B4,b,b,TRUE,1835,1,16028,trainPhase
5,2,B1,b,b,TRUE,1595,1,16028,trainPhase
6,2,A1,a,a,TRUE,3127,1,16028,trainPhase
7,2,A2,a,a,TRUE,1731,1,16028,trainPhase
8,2,B5,b,b,TRUE,2917,1,16028,trainPhase
9,2,B2,b,b,TRUE,1407,1,16028,trainPhase
10,2,A6,a,a,TRUE,3329,1,16028,trainPhase
11,2,A5,a,a,TRUE,1959,1,16028,trainPhase
0,3,B1,b,b,TRUE,1944,1,16028,trainPhase
1,3,B6,b,a,FALSE,3947,1,16028,trainPhase
2,3,A4,a,a,TRUE,1812,1,16028,trainPhase
3,3,A2,a,a,TRUE,1846,1,16028,trainPhase
4,3,A3,a,a,TRUE,1194,1,16028,trainPhase
5,3,B2,b,b,TRUE,1533,1,16028,trainPhase
6,3,B5,b,b,TRUE,1274,1,16028,trainPhase
7,3,B3,b,a,FALSE,1240,1,16028,trainPhase
8,3,B4,b,b,TRUE,1969,1,16028,trainPhase
9,3,A1,a,a,TRUE,1102,1,16028,trainPhase
10,3,A5,a,a,TRUE,1418,1,16028,trainPhase
11,3,A6,a,b,FALSE,3918,1,16028,trainPhase
0,4,A1,a,a,TRUE,1574,1,16028,trainPhase
1,4,A4,a,b,FALSE,1471,1,16028,trainPhase
2,4,B6,b,b,TRUE,1374,1,16028,trainPhase
3,4,A6,a,a,TRUE,1275,1,16028,trainPhase
4,4,A5,a,a,TRUE,1643,1,16028,trainPhase
5,4,B4,b,b,TRUE,979,1,16028,trainPhase
6,4,B1,b,b,TRUE,1750,1,16028,trainPhase
7,4,B3,b,a,FALSE,3478,1,16028,trainPhase
8,4,B2,b,b,TRUE,1280,1,16028,trainPhase
9,4,A3,a,a,TRUE,999,1,16028,trainPhase
10,4,B5,b,b,TRUE,2615,1,16028,trainPhase
11,4,A2,a,a,TRUE,1535,1,16028,trainPhase
0,5,B2,b,b,TRUE,1325,1,16028,trainPhase
1,5,B6,b,b,TRUE,3037,1,16028,trainPhase
2,5,B1,b,b,TRUE,1157,1,16028,trainPhase
3,5,A4,a,b,FALSE,2468,1,16028,trainPhase
4,5,B5,b,b,TRUE,1525,1,16028,trainPhase
5,5,A1,a,a,TRUE,1430,1,16028,trainPhase
6,5,A3,a,a,TRUE,965,1,16028,trainPhase
7,5,B3,b,a,FALSE,2204,1,16028,trainPhase
8,5,A6,a,a,TRUE,1527,1,16028,trainPhase
9,5,A2,a,a,TRUE,1661,1,16028,trainPhase
10,5,B4,b,b,TRUE,1236,1,16028,trainPhase
11,5,A5,a,a,TRUE,1063,1,16028,trainPhase
0,6,A6,a,a,TRUE,2285,1,16028,trainPhase
1,6,B5,b,b,TRUE,1667,1,16028,trainPhase
2,6,B2,b,b,TRUE,2185,1,16028,trainPhase
3,6,B6,b,b,TRUE,1122,1,16028,trainPhase
4,6,A5,a,a,TRUE,909,1,16028,trainPhase
5,6,B1,b,b,TRUE,2480,1,16028,trainPhase
6,6,B4,b,b,TRUE,1153,1,16028,trainPhase
7,6,A4,a,b,FALSE,1550,1,16028,trainPhase
8,6,B3,b,a,FALSE,1064,1,16028,trainPhase
9,6,A2,a,a,TRUE,1456,1,16028,trainPhase
10,6,A3,a,a,TRUE,1120,1,16028,trainPhase
11,6,A1,a,a,TRUE,842,1,16028,trainPhase
0,7,B5,b,b,TRUE,919,1,16028,trainPhase
1,7,A1,a,a,TRUE,992,1,16028,trainPhase
2,7,A5,a,b,FALSE,5696,1,16028,trainPhase
3,7,B3,b,b,TRUE,2599,1,16028,trainPhase
4,7,B1,b,b,TRUE,1105,1,16028,trainPhase
5,7,B6,b,b,TRUE,3186,1,16028,trainPhase
6,7,B4,b,b,TRUE,1039,1,16028,trainPhase
7,7,A3,a,a,TRUE,1040,1,16028,trainPhase
8,7,A4,a,b,FALSE,2865,1,16028,trainPhase
9,7,A2,a,a,TRUE,1362,1,16028,trainPhase
10,7,A6,a,a,TRUE,1019,1,16028,trainPhase
11,7,B2,b,b,TRUE,944,1,16028,trainPhase
0,8,A5,a,a,TRUE,1030,1,16028,trainPhase
1,8,B6,b,b,TRUE,1045,1,16028,trainPhase
2,8,A4,a,b,FALSE,2168,1,16028,trainPhase
3,8,B4,b,b,TRUE,1356,1,16028,trainPhase
4,8,B3,b,a,FALSE,904,1,16028,trainPhase
5,8,B2,b,b,TRUE,3531,1,16028,trainPhase
6,8,B1,b,b,TRUE,3201,1,16028,trainPhase
7,8,A6,a,a,TRUE,1539,1,16028,trainPhase
8,8,B5,b,b,TRUE,980,1,16028,trainPhase
9,8,A3,a,a,TRUE,938,1,16028,trainPhase
10,8,A1,a,a,TRUE,833,1,16028,trainPhase
11,8,A2,a,a,TRUE,802,1,16028,trainPhase
0,9,A1,a,a,TRUE,933,1,16028,trainPhase
1,9,A5,a,a,TRUE,925,1,16028,trainPhase
2,9,B3,b,a,FALSE,1559,1,16028,trainPhase
3,9,B2,b,b,TRUE,1674,1,16028,trainPhase
4,9,A6,a,a,TRUE,2109,1,16028,trainPhase
5,9,A3,a,a,TRUE,929,1,16028,trainPhase
6,9,A4,a,b,FALSE,4671,1,16028,trainPhase
7,9,B1,b,b,TRUE,1014,1,16028,trainPhase
8,9,B5,b,b,TRUE,1558,1,16028,trainPhase
9,9,B6,b,b,TRUE,767,1,16028,trainPhase
10,9,A2,a,a,TRUE,952,1,16028,trainPhase
11,9,B4,b,b,TRUE,992,1,16028,trainPhase
0,10,A2,a,a,TRUE,916,1,16028,trainPhase
1,10,A3,a,a,TRUE,823,1,16028,trainPhase
2,10,A1,a,a,TRUE,631,1,16028,trainPhase
3,10,A6,a,a,TRUE,1243,1,16028,trainPhase
4,10,B3,b,b,TRUE,3874,1,16028,trainPhase
5,10,B1,b,b,TRUE,1666,1,16028,trainPhase
6,10,B4,b,b,TRUE,1283,1,16028,trainPhase
7,10,B6,b,b,TRUE,797,1,16028,trainPhase
8,10,B2,b,b,TRUE,1372,1,16028,trainPhase
9,10,A4,a,b,FALSE,819,1,16028,trainPhase
10,10,A5,a,a,TRUE,1642,1,16028,trainPhase
11,10,B5,b,b,TRUE,838,1,16028,trainPhase
0,11,B2,b,b,TRUE,2053,1,16028,trainPhase
1,11,A3,a,a,TRUE,846,1,16028,trainPhase
2,11,A1,a,a,TRUE,932,1,16028,trainPhase
3,11,B3,b,a,FALSE,1802,1,16028,trainPhase
4,11,B4,b,b,TRUE,1025,1,16028,trainPhase
5,11,A6,a,a,TRUE,1800,1,16028,trainPhase
6,11,A4,a,b,FALSE,1742,1,16028,trainPhase
7,11,A5,a,a,TRUE,1013,1,16028,trainPhase
8,11,B1,b,b,TRUE,1044,1,16028,trainPhase
9,11,B6,b,b,TRUE,2376,1,16028,trainPhase
10,11,A2,a,a,TRUE,1056,1,16028,trainPhase
11,11,B5,b,b,TRUE,1272,1,16028,trainPhase
0,12,A4,a,b,FALSE,1338,1,16028,trainPhase
1,12,B2,b,b,TRUE,959,1,16028,trainPhase
2,12,A3,a,a,TRUE,864,1,16028,trainPhase
3,12,A2,a,a,TRUE,983,1,16028,trainPhase
4,12,A5,a,a,TRUE,1095,1,16028,trainPhase
5,12,B3,b,b,TRUE,3296,1,16028,trainPhase
6,12,A6,a,a,TRUE,1153,1,16028,trainPhase
7,12,A1,a,a,TRUE,1141,1,16028,trainPhase
8,12,B6,b,b,TRUE,1153,1,16028,trainPhase
9,12,B4,b,b,TRUE,791,1,16028,trainPhase
10,12,B1,b,b,TRUE,1246,1,16028,trainPhase
11,12,B5,b,b,TRUE,916,1,16028,trainPhase
0,13,B4,b,b,TRUE,844,1,16028,trainPhase
1,13,B6,b,b,TRUE,668,1,16028,trainPhase
2,13,A3,a,a,TRUE,1005,1,16028,trainPhase
3,13,B2,b,b,TRUE,1005,1,16028,trainPhase
4,13,B3,b,b,TRUE,4429,1,16028,trainPhase
0,0,A5,a,a,TRUE,1715,1,16029,trainPhase
1,0,B2,b,a,FALSE,1479,1,16029,trainPhase
2,0,A6,a,a,TRUE,1463,1,16029,trainPhase
3,0,B5,b,b,TRUE,2022,1,16029,trainPhase
4,0,B3,b,a,FALSE,1007,1,16029,trainPhase
5,0,B6,b,b,TRUE,1336,1,16029,trainPhase
6,0,A2,a,a,TRUE,1525,1,16029,trainPhase
7,0,B1,b,b,TRUE,1213,1,16029,trainPhase
8,0,A3,a,b,FALSE,1270,1,16029,trainPhase
9,0,A1,a,a,TRUE,2413,1,16029,trainPhase
10,0,B4,b,b,TRUE,1403,1,16029,trainPhase
11,0,A4,a,b,FALSE,1362,1,16029,trainPhase
0,1,A2,a,a,TRUE,1251,1,16029,trainPhase
1,1,B6,b,b,TRUE,1122,1,16029,trainPhase
2,1,A1,a,a,TRUE,959,1,16029,trainPhase
3,1,A4,a,b,FALSE,977,1,16029,trainPhase
4,1,A3,a,a,TRUE,1459,1,16029,trainPhase
5,1,B5,b,b,TRUE,1424,1,16029,trainPhase
6,1,A6,a,a,TRUE,1910,1,16029,trainPhase
7,1,B4,b,b,TRUE,1101,1,16029,trainPhase
8,1,B2,b,a,FALSE,2316,1,16029,trainPhase
9,1,B1,b,b,TRUE,1516,1,16029,trainPhase
10,1,B3,b,b,TRUE,1210,1,16029,trainPhase
11,1,A5,a,b,FALSE,1481,1,16029,trainPhase
0,2,A3,a,a,TRUE,1231,1,16029,trainPhase
1,2,A6,a,b,FALSE,2241,1,16029,trainPhase
2,2,B1,b,b,TRUE,2540,1,16029,trainPhase
3,2,A4,a,b,FALSE,1596,1,16029,trainPhase
4,2,B3,b,a,FALSE,1526,1,16029,trainPhase
5,2,A1,a,a,TRUE,1083,1,16029,trainPhase
6,2,B5,b,b,TRUE,1878,1,16029,trainPhase
7,2,A2,a,a,TRUE,2322,1,16029,trainPhase
8,2,B2,b,a,FALSE,2673,1,16029,trainPhase
9,2,B6,b,b,TRUE,973,1,16029,trainPhase
10,2,A5,a,a,TRUE,1646,1,16029,trainPhase
11,2,B4,b,b,TRUE,1032,1,16029,trainPhase
0,3,A3,a,a,TRUE,1579,1,16029,trainPhase
1,3,B3,b,a,FALSE,2062,1,16029,trainPhase
2,3,B2,b,b,TRUE,949,1,16029,trainPhase
3,3,A5,a,b,FALSE,1503,1,16029,trainPhase
4,3,A1,a,a,TRUE,1826,1,16029,trainPhase
5,3,B5,b,b,TRUE,3239,1,16029,trainPhase
6,3,B4,b,b,TRUE,1265,1,16029,trainPhase
7,3,A6,a,a,TRUE,1859,1,16029,trainPhase
8,3,A4,a,a,TRUE,1780,1,16029,trainPhase
9,3,A2,a,a,TRUE,1324,1,16029,trainPhase
10,3,B1,b,a,FALSE,3096,1,16029,trainPhase
11,3,B6,b,b,TRUE,1526,1,16029,trainPhase
0,4,A6,a,b,FALSE,1284,1,16029,trainPhase
1,4,A4,a,a,TRUE,2335,1,16029,trainPhase
2,4,B6,b,b,TRUE,1921,1,16029,trainPhase
3,4,B2,b,b,TRUE,2946,1,16029,trainPhase
4,4,A3,a,a,TRUE,1046,1,16029,trainPhase
5,4,B4,b,b,TRUE,3925,1,16029,trainPhase
6,4,B5,b,b,TRUE,1702,1,16029,trainPhase
7,4,A1,a,a,TRUE,1860,1,16029,trainPhase
8,4,B1,b,b,TRUE,3527,1,16029,trainPhase
9,4,B3,b,a,FALSE,2702,1,16029,trainPhase
10,4,A5,a,b,FALSE,2136,1,16029,trainPhase
11,4,A2,a,a,TRUE,6178,1,16029,trainPhase
0,5,B5,b,b,TRUE,1050,1,16029,trainPhase
1,5,B2,b,b,TRUE,1084,1,16029,trainPhase
2,5,B4,b,b,TRUE,1017,1,16029,trainPhase
3,5,A4,a,b,FALSE,1212,1,16029,trainPhase
4,5,A5,a,a,TRUE,1486,1,16029,trainPhase
5,5,B6,b,b,TRUE,1134,1,16029,trainPhase
6,5,A3,a,a,TRUE,1073,1,16029,trainPhase
7,5,A2,a,a,TRUE,1211,1,16029,trainPhase
8,5,B1,b,b,TRUE,1924,1,16029,trainPhase
9,5,B3,b,a,FALSE,2560,1,16029,trainPhase
10,5,A1,a,a,TRUE,1428,1,16029,trainPhase
11,5,A6,a,a,TRUE,3509,1,16029,trainPhase
0,6,A3,a,a,TRUE,1074,1,16029,trainPhase
1,6,A5,a,a,TRUE,1383,1,16029,trainPhase
2,6,B4,b,b,TRUE,1366,1,16029,trainPhase
3,6,B5,b,b,TRUE,1735,1,16029,trainPhase
4,6,A6,a,a,TRUE,3265,1,16029,trainPhase
5,6,B3,b,a,FALSE,5189,1,16029,trainPhase
6,6,A2,a,a,TRUE,1174,1,16029,trainPhase
7,6,A1,a,b,FALSE,1918,1,16029,trainPhase
8,6,B6,b,b,TRUE,900,1,16029,trainPhase
9,6,B2,b,b,TRUE,1039,1,16029,trainPhase
10,6,B1,b,b,TRUE,1643,1,16029,trainPhase
11,6,A4,a,b,FALSE,977,1,16029,trainPhase
0,7,B1,b,b,TRUE,1758,1,16029,trainPhase
1,7,A3,a,a,TRUE,913,1,16029,trainPhase
2,7,B2,b,b,TRUE,1305,1,16029,trainPhase
3,7,B6,b,b,TRUE,1429,1,16029,trainPhase
4,7,A1,a,a,TRUE,1403,1,16029,trainPhase
5,7,B5,b,b,TRUE,869,1,16029,trainPhase
6,7,A5,a,a,TRUE,3473,1,16029,trainPhase
7,7,A2,a,a,TRUE,1694,1,16029,trainPhase
8,7,B3,b,a,FALSE,766,1,16029,trainPhase
9,7,B4,b,b,TRUE,1849,1,16029,trainPhase
10,7,A6,a,a,TRUE,1965,1,16029,trainPhase
11,7,A4,a,a,TRUE,1105,1,16029,trainPhase
0,8,A1,a,a,TRUE,1174,1,16029,trainPhase
1,8,A4,a,a,TRUE,4290,1,16029,trainPhase
2,8,A2,a,a,TRUE,854,1,16029,trainPhase
3,8,B6,b,b,TRUE,921,1,16029,trainPhase
4,8,A6,a,b,FALSE,1743,1,16029,trainPhase
5,8,B1,b,b,TRUE,1040,1,16029,trainPhase
6,8,B3,b,a,FALSE,976,1,16029,trainPhase
7,8,A5,a,b,FALSE,1594,1,16029,trainPhase
8,8,A3,a,a,TRUE,1147,1,16029,trainPhase
9,8,B4,b,b,TRUE,1485,1,16029,trainPhase
10,8,B2,b,b,TRUE,1397,1,16029,trainPhase
11,8,B5,b,b,TRUE,1214,1,16029,trainPhase
0,9,B1,b,a,FALSE,2126,1,16029,trainPhase
1,9,B6,b,b,TRUE,1257,1,16029,trainPhase
2,9,B2,b,b,TRUE,1283,1,16029,trainPhase
3,9,B5,b,b,TRUE,1039,1,16029,trainPhase
4,9,B4,b,b,TRUE,862,1,16029,trainPhase
5,9,A5,a,a,TRUE,1187,1,16029,trainPhase
6,9,B3,b,a,FALSE,717,1,16029,trainPhase
7,9,A1,a,a,TRUE,1265,1,16029,trainPhase
8,9,A4,a,b,FALSE,9247,1,16029,trainPhase
9,9,A6,a,a,TRUE,2078,1,16029,trainPhase
10,9,A2,a,a,TRUE,1325,1,16029,trainPhase
11,9,A3,a,a,TRUE,8575,1,16029,trainPhase
0,10,B6,b,b,TRUE,14159,1,16029,trainPhase
1,10,A3,a,a,TRUE,1038,1,16029,trainPhase
2,10,B3,b,a,FALSE,1373,1,16029,trainPhase
3,10,A4,a,b,FALSE,2025,1,16029,trainPhase
4,10,A1,a,a,TRUE,1328,1,16029,trainPhase
5,10,A2,a,a,TRUE,1055,1,16029,trainPhase
6,10,B1,b,b,TRUE,2874,1,16029,trainPhase
7,10,B5,b,b,TRUE,1153,1,16029,trainPhase
8,10,A5,a,a,TRUE,2920,1,16029,trainPhase
9,10,B2,b,b,TRUE,878,1,16029,trainPhase
10,10,B4,b,b,TRUE,920,1,16029,trainPhase
11,10,A6,a,b,FALSE,885,1,16029,trainPhase
0,11,A4,a,a,TRUE,2105,1,16029,trainPhase
1,11,A3,a,a,TRUE,877,1,16029,trainPhase
2,11,B1,b,b,TRUE,1037,1,16029,trainPhase
3,11,B5,b,b,TRUE,988,1,16029,trainPhase
4,11,A6,a,a,TRUE,1120,1,16029,trainPhase
5,11,B6,b,a,FALSE,1295,1,16029,trainPhase
6,11,A5,a,a,TRUE,1175,1,16029,trainPhase
7,11,A1,a,a,TRUE,1280,1,16029,trainPhase
8,11,B2,b,b,TRUE,1335,1,16029,trainPhase
9,11,B3,b,a,FALSE,1139,1,16029,trainPhase
10,11,A2,a,a,TRUE,1018,1,16029,trainPhase
11,11,B4,b,b,TRUE,1089,1,16029,trainPhase
0,12,B1,b,b,TRUE,1367,1,16029,trainPhase
1,12,B6,b,b,TRUE,1115,1,16029,trainPhase
2,12,B4,b,b,TRUE,1145,1,16029,trainPhase
3,12,A5,a,a,TRUE,5036,1,16029,trainPhase
4,12,B3,b,b,TRUE,2717,1,16029,trainPhase
5,12,A2,a,a,TRUE,1077,1,16029,trainPhase
6,12,B5,b,b,TRUE,947,1,16029,trainPhase
7,12,A3,a,a,TRUE,1288,1,16029,trainPhase
8,12,B2,b,b,TRUE,1114,1,16029,trainPhase
9,12,A6,a,a,TRUE,1443,1,16029,trainPhase
10,12,A4,a,b,FALSE,1449,1,16029,trainPhase
11,12,A1,a,a,TRUE,1316,1,16029,trainPhase
0,13,A6,a,a,TRUE,1237,1,16029,trainPhase
1,13,A5,a,a,TRUE,1061,1,16029,trainPhase
2,13,B4,b,b,TRUE,3335,1,16029,trainPhase
3,13,B2,b,b,TRUE,1175,1,16029,trainPhase
4,13,B1,b,b,TRUE,1149,1,16029,trainPhase
5,13,A1,a,a,TRUE,1398,1,16029,trainPhase
6,13,B5,b,b,TRUE,1534,1,16029,trainPhase
7,13,B3,b,a,FALSE,918,1,16029,trainPhase
8,13,A3,a,a,TRUE,2028,1,16029,trainPhase
9,13,B6,b,b,TRUE,1774,1,16029,trainPhase
10,13,A4,a,b,FALSE,2889,1,16029,trainPhase
11,13,A2,a,a,TRUE,874,1,16029,trainPhase
0,14,B6,b,b,TRUE,1567,1,16029,trainPhase
1,14,A6,a,a,TRUE,1096,1,16029,trainPhase
2,14,A4,a,a,TRUE,1993,1,16029,trainPhase
3,14,B1,b,b,TRUE,907,1,16029,trainPhase
4,14,B2,b,b,TRUE,1546,1,16029,trainPhase
5,14,A3,a,a,TRUE,2696,1,16029,trainPhase
6,14,B5,b,b,TRUE,1880,1,16029,trainPhase
7,14,B4,b,b,TRUE,3567,1,16029,trainPhase
8,14,A5,a,a,TRUE,1928,1,16029,trainPhase
9,14,A1,a,a,TRUE,1503,1,16029,trainPhase
10,14,B3,b,b,TRUE,9184,1,16029,trainPhase
11,14,A2,a,a,TRUE,1372,1,16029,trainPhase
0,0,A6,a,a,TRUE,2651,1,16030,trainPhase
1,0,A4,a,a,TRUE,1215,1,16030,trainPhase
2,0,A1,a,a,TRUE,1207,1,16030,trainPhase
3,0,B2,b,a,FALSE,759,1,16030,trainPhase
4,0,B3,b,a,FALSE,2672,1,16030,trainPhase
5,0,B1,b,b,TRUE,1693,1,16030,trainPhase
6,0,B5,b,b,TRUE,1314,1,16030,trainPhase
7,0,A3,a,a,TRUE,1021,1,16030,trainPhase
8,0,B4,b,b,TRUE,544,1,16030,trainPhase
9,0,A5,a,a,TRUE,1063,1,16030,trainPhase
10,0,B6,b,b,TRUE,535,1,16030,trainPhase
11,0,A2,a,a,TRUE,688,1,16030,trainPhase
0,1,A4,a,b,FALSE,545,1,16030,trainPhase
1,1,B5,b,b,TRUE,984,1,16030,trainPhase
2,1,B1,b,a,FALSE,1099,1,16030,trainPhase
3,1,B6,b,b,TRUE,1527,1,16030,trainPhase
4,1,B3,b,a,FALSE,1117,1,16030,trainPhase
5,1,A1,a,a,TRUE,2964,1,16030,trainPhase
6,1,B2,b,b,TRUE,878,1,16030,trainPhase
7,1,A5,a,b,FALSE,976,1,16030,trainPhase
8,1,A3,a,a,TRUE,1477,1,16030,trainPhase
9,1,B4,b,b,TRUE,813,1,16030,trainPhase
10,1,A6,a,b,FALSE,1316,1,16030,trainPhase
11,1,A2,a,a,TRUE,1915,1,16030,trainPhase
0,2,B1,b,b,TRUE,3806,1,16030,trainPhase
1,2,A6,a,b,FALSE,2545,1,16030,trainPhase
2,2,A5,a,a,TRUE,885,1,16030,trainPhase
3,2,B5,b,a,FALSE,848,1,16030,trainPhase
4,2,A3,a,a,TRUE,1358,1,16030,trainPhase
5,2,B6,b,b,TRUE,1220,1,16030,trainPhase
6,2,A1,a,a,TRUE,1628,1,16030,trainPhase
7,2,B3,b,b,TRUE,2572,1,16030,trainPhase
8,2,B4,b,b,TRUE,871,1,16030,trainPhase
9,2,A2,a,a,TRUE,1278,1,16030,trainPhase
10,2,A4,a,b,FALSE,1383,1,16030,trainPhase
11,2,B2,b,b,TRUE,1579,1,16030,trainPhase
0,3,B2,b,b,TRUE,1106,1,16030,trainPhase
1,3,A4,a,b,FALSE,1446,1,16030,trainPhase
2,3,A6,a,a,TRUE,952,1,16030,trainPhase
3,3,B5,b,b,TRUE,1271,1,16030,trainPhase
4,3,A1,a,a,TRUE,1083,1,16030,trainPhase
5,3,B1,b,a,FALSE,1626,1,16030,trainPhase
6,3,A3,a,a,TRUE,1335,1,16030,trainPhase
7,3,B4,b,b,TRUE,685,1,16030,trainPhase
8,3,A5,a,a,TRUE,2841,1,16030,trainPhase
9,3,B3,b,b,TRUE,2354,1,16030,trainPhase
10,3,A2,a,a,TRUE,1234,1,16030,trainPhase
11,3,B6,b,b,TRUE,1124,1,16030,trainPhase
0,4,B2,b,b,TRUE,2451,1,16030,trainPhase
1,4,A3,a,a,TRUE,975,1,16030,trainPhase
2,4,B3,b,a,FALSE,1572,1,16030,trainPhase
3,4,B5,b,b,TRUE,1059,1,16030,trainPhase
4,4,A1,a,a,TRUE,3042,1,16030,trainPhase
5,4,A5,a,b,FALSE,1490,1,16030,trainPhase
6,4,A6,a,b,FALSE,1151,1,16030,trainPhase
7,4,A2,a,a,TRUE,975,1,16030,trainPhase
8,4,B1,b,b,TRUE,3456,1,16030,trainPhase
9,4,A4,a,b,FALSE,1302,1,16030,trainPhase
10,4,B4,b,b,TRUE,1648,1,16030,trainPhase
11,4,B6,b,b,TRUE,1784,1,16030,trainPhase
0,5,A4,a,a,TRUE,1463,1,16030,trainPhase
1,5,B6,b,b,TRUE,1416,1,16030,trainPhase
2,5,B4,b,b,TRUE,1800,1,16030,trainPhase
3,5,B5,b,b,TRUE,1738,1,16030,trainPhase
4,5,A5,a,a,TRUE,1168,1,16030,trainPhase
5,5,B1,b,a,FALSE,1223,1,16030,trainPhase
6,5,B2,b,b,TRUE,1555,1,16030,trainPhase
7,5,A1,a,a,TRUE,1118,1,16030,trainPhase
8,5,A2,a,a,TRUE,1047,1,16030,trainPhase
9,5,B3,b,a,FALSE,2352,1,16030,trainPhase
10,5,A6,a,b,FALSE,897,1,16030,trainPhase
11,5,A3,a,a,TRUE,1102,1,16030,trainPhase
0,6,A6,a,a,TRUE,2203,1,16030,trainPhase
1,6,A5,a,a,TRUE,1456,1,16030,trainPhase
2,6,B4,b,b,TRUE,1341,1,16030,trainPhase
3,6,B5,b,b,TRUE,1455,1,16030,trainPhase
4,6,B1,b,a,FALSE,1328,1,16030,trainPhase
5,6,A1,a,a,TRUE,1087,1,16030,trainPhase
6,6,B3,b,a,FALSE,1626,1,16030,trainPhase
7,6,A3,a,a,TRUE,1455,1,16030,trainPhase
