trial,block,stimId,category,response,accuracy,rt,condition,id,phase
0,0,A2,a,b,False,2466,5,15038,trainPhase
1,0,B1,b,a,False,2638,5,15038,trainPhase
2,0,A1,a,b,False,1928,5,15038,trainPhase
3,0,B2,b,b,True,1839,5,15038,trainPhase
4,0,A0,a,a,True,1435,5,15038,trainPhase
5,0,B0,b,b,True,2156,5,15038,trainPhase
0,1,B1,b,b,True,1141,5,15038,trainPhase
1,1,A2,a,b,False,1381,5,15038,trainPhase
2,1,A0,a,a,True,867,5,15038,trainPhase
3,1,B0,b,a,False,1365,5,15038,trainPhase
4,1,B2,b,b,True,933,5,15038,trainPhase
5,1,A1,a,a,True,853,5,15038,trainPhase
0,2,A0,a,a,True,876,5,15038,trainPhase
1,2,A2,a,b,False,1898,5,15038,trainPhase
2,2,A1,a,a,True,1126,5,15038,trainPhase
3,2,B2,b,b,True,1230,5,15038,trainPhase
4,2,B0,b,b,True,2719,5,15038,trainPhase
5,2,B1,b,b,True,888,5,15038,trainPhase
0,3,A0,a,a,True,852,5,15038,trainPhase
1,3,A1,a,a,True,863,5,15038,trainPhase
2,3,B0,b,b,True,2216,5,15038,trainPhase
3,3,A2,a,a,True,1796,5,15038,trainPhase
4,3,B2,b,b,True,1038,5,15038,trainPhase
5,3,B1,b,b,True,1075,5,15038,trainPhase
0,4,B1,b,b,True,724,5,15038,trainPhase
1,4,A1,a,a,True,1147,5,15038,trainPhase
2,4,B0,b,b,True,1466,5,15038,trainPhase
3,4,B2,b,b,True,1251,5,15038,trainPhase
4,4,A2,a,a,True,788,5,15038,trainPhase
5,4,A0,a,a,True,854,5,15038,trainPhase
0,0,A2,a,a,True,1970,5,15043,trainPhase
1,0,B2,b,b,True,2064,5,15043,trainPhase
2,0,A0,a,a,True,1303,5,15043,trainPhase
3,0,A1,a,a,True,1222,5,15043,trainPhase
4,0,B0,b,b,True,806,5,15043,trainPhase
5,0,B1,b,b,True,935,5,15043,trainPhase
0,1,A1,a,a,True,1078,5,15043,trainPhase
1,1,B0,b,b,True,853,5,15043,trainPhase
2,1,B2,b,b,True,1393,5,15043,trainPhase
3,1,A2,a,a,True,823,5,15043,trainPhase
4,1,A0,a,a,True,1416,5,15043,trainPhase
5,1,B1,b,b,True,1570,5,15043,trainPhase
0,2,A2,a,b,False,1609,5,15043,trainPhase
1,2,A1,a,a,True,2149,5,15043,trainPhase
2,2,A0,a,a,True,1009,5,15043,trainPhase
3,2,B0,b,b,True,2173,5,15043,trainPhase
4,2,B1,b,b,True,1287,5,15043,trainPhase
5,2,B2,b,b,True,1494,5,15043,trainPhase
0,3,B1,b,b,True,1078,5,15043,trainPhase
1,3,A1,a,a,True,1233,5,15043,trainPhase
2,3,A2,a,a,True,1169,5,15043,trainPhase
3,3,B0,b,b,True,1262,5,15043,trainPhase
4,3,A0,a,a,True,789,5,15043,trainPhase
5,3,B2,b,b,True,896,5,15043,trainPhase
0,4,A0,a,a,True,736,5,15043,trainPhase
1,4,B1,b,b,True,889,5,15043,trainPhase
2,4,A2,a,a,True,746,5,15043,trainPhase
3,4,B2,b,b,True,4222,5,15043,trainPhase
4,4,B0,b,b,True,1407,5,15043,trainPhase
0,0,B0,b,a,False,2435,5,15065,trainPhase
1,0,A1,a,b,False,2541,5,15065,trainPhase
2,0,A2,a,b,False,3551,5,15065,trainPhase
3,0,B2,b,b,True,2544,5,15065,trainPhase
4,0,A0,a,a,True,1139,5,15065,trainPhase
5,0,B1,b,b,True,1073,5,15065,trainPhase
0,1,A0,a,a,True,848,5,15065,trainPhase
1,1,A1,a,a,True,2135,5,15065,trainPhase
2,1,B0,b,b,True,1953,5,15065,trainPhase
3,1,A2,a,a,True,1290,5,15065,trainPhase
4,1,B1,b,b,True,2824,5,15065,trainPhase
5,1,B2,b,b,True,983,5,15065,trainPhase
0,2,A2,a,a,True,780,5,15065,trainPhase
1,2,A1,a,a,True,776,5,15065,trainPhase
2,2,B2,b,b,True,780,5,15065,trainPhase
3,2,B1,b,b,True,856,5,15065,trainPhase
4,2,B0,b,a,False,1230,5,15065,trainPhase
5,2,A0,a,a,True,1128,5,15065,trainPhase
0,3,B0,b,b,True,1889,5,15065,trainPhase
1,3,A0,a,a,True,814,5,15065,trainPhase
2,3,A2,a,b,False,2066,5,15065,trainPhase
3,3,A1,a,a,True,1102,5,15065,trainPhase
4,3,B2,b,b,True,959,5,15065,trainPhase
5,3,B1,b,b,True,777,5,15065,trainPhase
0,4,B1,b,b,True,1124,5,15065,trainPhase
1,4,B2,b,b,True,804,5,15065,trainPhase
2,4,B0,b,b,True,1597,5,15065,trainPhase
3,4,A0,a,a,True,858,5,15065,trainPhase
4,4,A1,a,a,True,814,5,15065,trainPhase
5,4,A2,a,b,False,1930,5,15065,trainPhase
0,5,B2,b,b,True,871,5,15065,trainPhase
1,5,B1,b,b,True,1333,5,15065,trainPhase
2,5,A0,a,a,True,960,5,15065,trainPhase
3,5,B0,b,b,True,4385,5,15065,trainPhase
4,5,A1,a,a,True,1019,5,15065,trainPhase
5,5,A2,a,a,True,1106,5,15065,trainPhase
0,6,A1,a,a,True,780,5,15065,trainPhase
1,6,A2,a,a,True,822,5,15065,trainPhase
2,6,B2,b,b,True,713,5,15065,trainPhase
3,6,B1,b,b,True,775,5,15065,trainPhase
4,6,A0,a,a,True,2063,5,15065,trainPhase
5,6,B0,b,a,False,1320,5,15065,trainPhase
0,7,A1,a,a,True,1004,5,15065,trainPhase
1,7,A2,a,a,True,864,5,15065,trainPhase
2,7,B2,b,b,True,760,5,15065,trainPhase
3,7,B0,b,a,False,823,5,15065,trainPhase
4,7,A0,a,a,True,838,5,15065,trainPhase
5,7,B1,b,b,True,1150,5,15065,trainPhase
0,8,A2,a,a,True,847,5,15065,trainPhase
1,8,A1,a,a,True,1577,5,15065,trainPhase
2,8,B2,b,b,True,642,5,15065,trainPhase
3,8,B1,b,b,True,576,5,15065,trainPhase
4,8,B0,b,b,True,773,5,15065,trainPhase
5,8,A0,a,a,True,728,5,15065,trainPhase
0,9,B1,b,b,True,1070,5,15065,trainPhase
1,9,B2,b,b,True,776,5,15065,trainPhase
2,9,B0,b,b,True,1772,5,15065,trainPhase
3,9,A1,a,a,True,813,5,15065,trainPhase
4,9,A0,a,a,True,647,5,15065,trainPhase
5,9,A2,a,a,True,1801,5,15065,trainPhase
0,10,A2,a,a,True,1350,5,15065,trainPhase
1,10,B1,b,b,True,783,5,15065,trainPhase
0,0,A2,a,b,False,11998,5,15070,trainPhase
1,0,B2,b,b,True,4727,5,15070,trainPhase
2,0,A1,a,a,True,3107,5,15070,trainPhase
3,0,B1,b,b,True,1463,5,15070,trainPhase
4,0,B0,b,b,True,5887,5,15070,trainPhase
5,0,A0,a,a,True,2484,5,15070,trainPhase
0,1,B0,b,b,True,2619,5,15070,trainPhase
1,1,A2,a,a,True,3134,5,15070,trainPhase
2,1,B2,b,b,True,1574,5,15070,trainPhase
3,1,A0,a,a,True,1518,5,15070,trainPhase
4,1,A1,a,a,True,1411,5,15070,trainPhase
5,1,B1,b,b,True,1158,5,15070,trainPhase
0,2,B1,b,b,True,1750,5,15070,trainPhase
1,2,A2,a,a,True,1381,5,15070,trainPhase
2,2,A1,a,a,True,2090,5,15070,trainPhase
3,2,B0,b,b,True,3935,5,15070,trainPhase
4,2,B2,b,b,True,1175,5,15070,trainPhase
0,0,A2,a,b,False,4496,5,15085,trainPhase
1,0,A0,a,a,True,1778,5,15085,trainPhase
2,0,B2,b,b,True,2056,5,15085,trainPhase
3,0,B1,b,b,True,1088,5,15085,trainPhase
4,0,B0,b,b,True,1470,5,15085,trainPhase
5,0,A1,a,b,False,1320,5,15085,trainPhase
0,1,A1,a,a,True,1115,5,15085,trainPhase
1,1,B0,b,b,True,1105,5,15085,trainPhase
2,1,B2,b,b,True,933,5,15085,trainPhase
3,1,A2,a,a,True,1196,5,15085,trainPhase
4,1,B1,b,b,True,1132,5,15085,trainPhase
5,1,A0,a,a,True,1296,5,15085,trainPhase
0,2,B1,b,b,True,1113,5,15085,trainPhase
1,2,B0,b,a,False,1312,5,15085,trainPhase
2,2,A2,a,b,False,1502,5,15085,trainPhase
3,2,A0,a,a,True,893,5,15085,trainPhase
4,2,B2,b,b,True,1577,5,15085,trainPhase
5,2,A1,a,a,True,982,5,15085,trainPhase
0,3,B2,b,b,True,969,5,15085,trainPhase
1,3,B1,b,b,True,986,5,15085,trainPhase
2,3,A1,a,a,True,1039,5,15085,trainPhase
3,3,A2,a,a,True,1174,5,15085,trainPhase
4,3,A0,a,a,True,959,5,15085,trainPhase
5,3,B0,b,a,False,1502,5,15085,trainPhase
0,4,B1,b,b,True,964,5,15085,trainPhase
1,4,B2,b,b,True,780,5,15085,trainPhase
2,4,A0,a,a,True,809,5,15085,trainPhase
3,4,B0,b,b,True,910,5,15085,trainPhase
4,4,A2,a,b,False,810,5,15085,trainPhase
5,4,A1,a,a,True,1209,5,15085,trainPhase
0,5,A1,a,a,True,1162,5,15085,trainPhase
1,5,B1,b,b,True,1061,5,15085,trainPhase
2,5,A0,a,a,True,766,5,15085,trainPhase
3,5,A2,a,b,False,844,5,15085,trainPhase
4,5,B0,b,b,True,1047,5,15085,trainPhase
5,5,B2,b,b,True,650,5,15085,trainPhase
0,6,A0,a,a,True,877,5,15085,trainPhase
1,6,B2,b,b,True,677,5,15085,trainPhase
2,6,B1,b,b,True,1377,5,15085,trainPhase
3,6,A1,a,a,True,990,5,15085,trainPhase
4,6,B0,b,b,True,1107,5,15085,trainPhase
5,6,A2,a,a,True,1144,5,15085,trainPhase
0,7,B0,b,b,True,1022,5,15085,trainPhase
1,7,A1,a,a,True,838,5,15085,trainPhase
2,7,A2,a,b,False,1464,5,15085,trainPhase
3,7,B2,b,b,True,1375,5,15085,trainPhase
4,7,B1,b,b,True,975,5,15085,trainPhase
5,7,A0,a,a,True,762,5,15085,trainPhase
0,8,A2,a,a,True,1072,5,15085,trainPhase
1,8,A1,a,a,True,977,5,15085,trainPhase
2,8,B0,b,b,True,1556,5,15085,trainPhase
3,8,A0,a,a,True,1075,5,15085,trainPhase
4,8,B1,b,b,True,701,5,15085,trainPhase
5,8,B2,b,b,True,697,5,15085,trainPhase
0,9,B2,b,b,True,888,5,15085,trainPhase
1,9,A1,a,a,True,1016,5,15085,trainPhase
2,9,B1,b,b,True,791,5,15085,trainPhase
3,9,A0,a,a,True,1381,5,15085,trainPhase
4,9,B0,b,b,True,809,5,15085,trainPhase
5,9,A2,a,a,True,869,5,15085,trainPhase
0,10,A2,a,a,True,936,5,15085,trainPhase
0,0,B1,b,a,False,2196,5,15090,trainPhase
1,0,B2,b,b,True,2359,5,15090,trainPhase
2,0,A0,a,a,True,1837,5,15090,trainPhase
3,0,A2,a,a,True,2661,5,15090,trainPhase
4,0,A1,a,b,False,1039,5,15090,trainPhase
5,0,B0,b,a,False,3860,5,15090,trainPhase
0,1,A0,a,a,True,1677,5,15090,trainPhase
1,1,B2,b,b,True,3180,5,15090,trainPhase
2,1,A1,a,b,False,3167,5,15090,trainPhase
3,1,A2,a,a,True,1140,5,15090,trainPhase
4,1,B0,b,a,False,2289,5,15090,trainPhase
5,1,B1,b,b,True,2382,5,15090,trainPhase
0,2,B1,b,b,True,1378,5,15090,trainPhase
1,2,B0,b,b,True,4630,5,15090,trainPhase
2,2,B2,b,b,True,989,5,15090,trainPhase
3,2,A1,a,a,True,1577,5,15090,trainPhase
4,2,A0,a,a,True,1132,5,15090,trainPhase
5,2,A2,a,a,True,2117,5,15090,trainPhase
0,3,B2,b,b,True,4063,5,15090,trainPhase
1,3,B1,b,b,True,734,5,15090,trainPhase
2,3,A1,a,a,True,1478,5,15090,trainPhase
3,3,B0,b,a,False,1749,5,15090,trainPhase
4,3,A2,a,a,True,926,5,15090,trainPhase
5,3,A0,a,a,True,757,5,15090,trainPhase
0,4,A0,a,a,True,693,5,15090,trainPhase
1,4,B1,b,b,True,798,5,15090,trainPhase
2,4,A1,a,a,True,4429,5,15090,trainPhase
3,4,B0,b,b,True,1133,5,15090,trainPhase
4,4,B2,b,b,True,934,5,15090,trainPhase
5,4,A2,a,a,True,1214,5,15090,trainPhase
0,5,A2,a,a,True,1161,5,15090,trainPhase
1,5,B0,b,b,True,3780,5,15090,trainPhase
2,5,B2,b,b,True,1041,5,15090,trainPhase
3,5,B1,b,b,True,834,5,15090,trainPhase
4,5,A1,a,a,True,1726,5,15090,trainPhase
5,5,A0,a,a,True,827,5,15090,trainPhase
0,6,A1,a,a,True,1181,5,15090,trainPhase
1,6,B1,b,b,True,846,5,15090,trainPhase
0,0,A1,a,b,False,3397,5,15095,trainPhase
1,0,B2,b,b,True,1526,5,15095,trainPhase
2,0,A0,a,a,True,1326,5,15095,trainPhase
3,0,B1,b,b,True,1076,5,15095,trainPhase
4,0,B0,b,a,False,1076,5,15095,trainPhase
5,0,A2,a,a,True,918,5,15095,trainPhase
0,1,B2,b,b,True,672,5,15095,trainPhase
1,1,A2,a,a,True,1128,5,15095,trainPhase
2,1,A1,a,a,True,1192,5,15095,trainPhase
3,1,B1,b,b,True,895,5,15095,trainPhase
4,1,A0,a,a,True,1146,5,15095,trainPhase
5,1,B0,b,b,True,1251,5,15095,trainPhase
0,2,A0,a,a,True,839,5,15095,trainPhase
1,2,B1,b,b,True,978,5,15095,trainPhase
2,2,B0,b,b,True,888,5,15095,trainPhase
3,2,B2,b,b,True,1127,5,15095,trainPhase
4,2,A1,a,a,True,1050,5,15095,trainPhase
5,2,A2,a,b,False,1157,5,15095,trainPhase
0,3,B2,b,b,True,1143,5,15095,trainPhase
1,3,A0,a,a,True,1053,5,15095,trainPhase
2,3,B0,b,b,True,1294,5,15095,trainPhase
3,3,B1,b,b,True,1416,5,15095,trainPhase
4,3,A1,a,a,True,1125,5,15095,trainPhase
5,3,A2,a,a,True,933,5,15095,trainPhase
0,4,B1,b,b,True,894,5,15095,trainPhase
1,4,B0,b,b,True,1449,5,15095,trainPhase
2,4,A1,a,a,True,1119,5,15095,trainPhase
3,4,A2,a,a,True,983,5,15095,trainPhase
4,4,A0,a,a,True,975,5,15095,trainPhase
5,4,B2,b,b,True,1083,5,15095,trainPhase
0,5,B1,b,b,True,1304,5,15095,trainPhase
1,5,A0,a,a,True,1016,5,15095,trainPhase
2,5,A2,a,a,True,850,5,15095,trainPhase
3,5,B0,b,b,True,1947,5,15095,trainPhase
0,0,A1,a,b,False,2534,5,15100,trainPhase
1,0,A0,a,a,True,1196,5,15100,trainPhase
2,0,A2,a,a,True,1023,5,15100,trainPhase
3,0,B0,b,a,False,904,5,15100,trainPhase
4,0,B1,b,b,True,1126,5,15100,trainPhase
5,0,B2,b,b,True,885,5,15100,trainPhase
0,1,B0,b,a,False,966,5,15100,trainPhase
1,1,A1,a,b,False,383,5,15100,trainPhase
2,1,A0,a,a,True,1030,5,15100,trainPhase
3,1,A2,a,b,False,1038,5,15100,trainPhase
4,1,B2,b,b,True,950,5,15100,trainPhase
5,1,B1,b,b,True,855,5,15100,trainPhase
0,2,B1,b,b,True,722,5,15100,trainPhase
1,2,B2,b,b,True,590,5,15100,trainPhase
2,2,A0,a,a,True,807,5,15100,trainPhase
3,2,A1,a,a,True,694,5,15100,trainPhase
4,2,B0,b,b,True,829,5,15100,trainPhase
5,2,A2,a,b,False,1024,5,15100,trainPhase
0,3,B0,b,b,True,1026,5,15100,trainPhase
1,3,A2,a,a,True,1421,5,15100,trainPhase
2,3,B2,b,b,True,862,5,15100,trainPhase
3,3,A1,a,a,True,861,5,15100,trainPhase
4,3,A0,a,a,True,780,5,15100,trainPhase
5,3,B1,b,b,True,998,5,15100,trainPhase
0,4,B1,b,b,True,643,5,15100,trainPhase
1,4,B2,b,b,True,548,5,15100,trainPhase
2,4,A2,a,b,False,1696,5,15100,trainPhase
3,4,B0,b,b,True,1228,5,15100,trainPhase
4,4,A0,a,a,True,799,5,15100,trainPhase
5,4,A1,a,a,True,761,5,15100,trainPhase
0,5,A0,a,a,True,599,5,15100,trainPhase
1,5,A2,a,b,False,1549,5,15100,trainPhase
2,5,B1,b,b,True,979,5,15100,trainPhase
3,5,B2,b,b,True,470,5,15100,trainPhase
4,5,B0,b,b,True,980,5,15100,trainPhase
5,5,A1,a,a,True,1109,5,15100,trainPhase
0,6,A2,a,a,True,1002,5,15100,trainPhase
1,6,B0,b,b,True,853,5,15100,trainPhase
2,6,B2,b,b,True,968,5,15100,trainPhase
3,6,A1,a,a,True,1131,5,15100,trainPhase
4,6,A0,a,a,True,857,5,15100,trainPhase
5,6,B1,b,b,True,952,5,15100,trainPhase
0,7,B2,b,b,True,576,5,15100,trainPhase
1,7,B0,b,b,True,664,5,15100,trainPhase
2,7,B1,b,b,True,517,5,15100,trainPhase
3,7,A0,a,a,True,812,5,15100,trainPhase
4,7,A1,a,a,True,823,5,15100,trainPhase
5,7,A2,a,a,True,1036,5,15100,trainPhase
0,0,B2,b,a,False,2883,5,15105,trainPhase
1,0,A2,a,a,True,3013,5,15105,trainPhase
2,0,A0,a,a,True,2439,5,15105,trainPhase
3,0,A1,a,b,False,2155,5,15105,trainPhase
4,0,B1,b,b,True,1264,5,15105,trainPhase
5,0,B0,b,a,False,1300,5,15105,trainPhase
0,1,A2,a,a,True,2238,5,15105,trainPhase
1,1,B1,b,b,True,1156,5,15105,trainPhase
2,1,B0,b,b,True,1272,5,15105,trainPhase
3,1,A1,a,b,False,1553,5,15105,trainPhase
4,1,B2,b,b,True,1427,5,15105,trainPhase
5,1,A0,a,a,True,1274,5,15105,trainPhase
0,2,B2,b,b,True,1195,5,15105,trainPhase
1,2,B1,b,b,True,1388,5,15105,trainPhase
2,2,A2,a,a,True,1239,5,15105,trainPhase
3,2,A0,a,a,True,1118,5,15105,trainPhase
4,2,B0,b,b,True,3186,5,15105,trainPhase
5,2,A1,a,a,True,1648,5,15105,trainPhase
0,3,A1,a,a,True,931,5,15105,trainPhase
1,3,A0,a,a,True,850,5,15105,trainPhase
2,3,B0,b,b,True,1419,5,15105,trainPhase
3,3,B2,b,b,True,750,5,15105,trainPhase
4,3,B1,b,b,True,891,5,15105,trainPhase
5,3,A2,a,a,True,1830,5,15105,trainPhase
0,4,A2,a,a,True,793,5,15105,trainPhase
1,4,A1,a,a,True,1879,5,15105,trainPhase
0,0,B0,b,a,False,2999,5,15110,trainPhase
1,0,A0,a,a,True,1931,5,15110,trainPhase
2,0,A1,a,b,False,1324,5,15110,trainPhase
3,0,B2,b,b,True,2892,5,15110,trainPhase
4,0,A2,a,a,True,1368,5,15110,trainPhase
5,0,B1,b,b,True,2061,5,15110,trainPhase
0,1,B2,b,b,True,1235,5,15110,trainPhase
1,1,B1,b,b,True,1206,5,15110,trainPhase
2,1,A1,a,a,True,2794,5,15110,trainPhase
3,1,A0,a,a,True,1156,5,15110,trainPhase
4,1,A2,a,a,True,4618,5,15110,trainPhase
5,1,B0,b,b,True,2939,5,15110,trainPhase
0,2,B2,b,b,True,1091,5,15110,trainPhase
1,2,B1,b,b,True,1156,5,15110,trainPhase
2,2,A2,a,a,True,1315,5,15110,trainPhase
3,2,A0,a,a,True,1161,5,15110,trainPhase
4,2,B0,b,b,True,2960,5,15110,trainPhase
5,2,A1,a,a,True,2259,5,15110,trainPhase
0,3,B2,b,b,True,2902,5,15110,trainPhase
0,0,A1,a,a,True,2681,5,15115,trainPhase
1,0,B2,b,b,True,1620,5,15115,trainPhase
2,0,B0,b,b,True,1983,5,15115,trainPhase
3,0,B1,b,b,True,1085,5,15115,trainPhase
4,0,A2,a,a,True,2853,5,15115,trainPhase
5,0,A0,a,a,True,2007,5,15115,trainPhase
0,1,A0,a,a,True,2130,5,15115,trainPhase
1,1,A2,a,a,True,1671,5,15115,trainPhase
2,1,B1,b,b,True,1702,5,15115,trainPhase
3,1,B0,b,b,True,1317,5,15115,trainPhase
4,1,B2,b,b,True,897,5,15115,trainPhase
5,1,A1,a,b,False,1542,5,15115,trainPhase
0,2,A0,a,a,True,1843,5,15115,trainPhase
1,2,B0,b,b,True,1532,5,15115,trainPhase
2,2,B1,b,b,True,1376,5,15115,trainPhase
3,2,A2,a,a,True,1333,5,15115,trainPhase
4,2,B2,b,b,True,1203,5,15115,trainPhase
5,2,A1,a,a,True,1901,5,15115,trainPhase
0,3,B1,b,b,True,1214,5,15115,trainPhase
1,3,A0,a,a,True,1184,5,15115,trainPhase
2,3,B2,b,b,True,1077,5,15115,trainPhase
3,3,A1,a,a,True,1304,5,15115,trainPhase
4,3,A2,a,a,True,1344,5,15115,trainPhase
5,3,B0,b,b,True,1574,5,15115,trainPhase
0,4,B2,b,b,True,1121,5,15115,trainPhase
1,4,A1,a,a,True,2965,5,15115,trainPhase
2,4,A2,a,a,True,3030,5,15115,trainPhase
3,4,B0,b,b,True,1269,5,15115,trainPhase
0,0,B2,b,a,False,2203,5,15120,trainPhase
1,0,B0,b,a,False,2453,5,15120,trainPhase
2,0,A2,a,b,False,1090,5,15120,trainPhase
3,0,A0,a,a,True,1481,5,15120,trainPhase
4,0,A1,a,b,False,3092,5,15120,trainPhase
5,0,B1,b,b,True,3582,5,15120,trainPhase
0,1,B0,b,b,True,2632,5,15120,trainPhase
1,1,B2,b,b,True,1373,5,15120,trainPhase
2,1,A0,a,a,True,1141,5,15120,trainPhase
3,1,A2,a,a,True,2132,5,15120,trainPhase
4,1,B1,b,b,True,1072,5,15120,trainPhase
5,1,A1,a,a,True,2101,5,15120,trainPhase
0,2,B0,b,b,True,1705,5,15120,trainPhase
1,2,A2,a,a,True,1221,5,15120,trainPhase
2,2,B1,b,b,True,902,5,15120,trainPhase
3,2,A0,a,a,True,1437,5,15120,trainPhase
4,2,B2,b,b,True,672,5,15120,trainPhase
5,2,A1,a,b,False,1358,5,15120,trainPhase
0,3,B1,b,b,True,999,5,15120,trainPhase
1,3,A1,a,a,True,1453,5,15120,trainPhase
2,3,A0,a,a,True,1056,5,15120,trainPhase
3,3,A2,a,b,False,1009,5,15120,trainPhase
4,3,B0,b,a,False,1028,5,15120,trainPhase
5,3,B2,b,b,True,1209,5,15120,trainPhase
0,4,B0,b,b,True,1956,5,15120,trainPhase
1,4,B1,b,b,True,1453,5,15120,trainPhase
2,4,A1,a,a,True,697,5,15120,trainPhase
3,4,B2,b,b,True,1109,5,15120,trainPhase
4,4,A0,a,a,True,726,5,15120,trainPhase
5,4,A2,a,b,False,1170,5,15120,trainPhase
0,5,A1,a,a,True,1720,5,15120,trainPhase
1,5,A2,a,a,True,790,5,15120,trainPhase
2,5,B1,b,b,True,750,5,15120,trainPhase
3,5,B2,b,b,True,2704,5,15120,trainPhase
4,5,B0,b,b,True,1012,5,15120,trainPhase
5,5,A0,a,a,True,1048,5,15120,trainPhase
0,6,B2,b,b,True,779,5,15120,trainPhase
1,6,A2,a,a,True,883,5,15120,trainPhase
2,6,A0,a,a,True,1199,5,15120,trainPhase
3,6,B1,b,b,True,622,5,15120,trainPhase
4,6,B0,b,a,False,757,5,15120,trainPhase
5,6,A1,a,b,False,962,5,15120,trainPhase
0,7,B1,b,b,True,927,5,15120,trainPhase
1,7,A0,a,a,True,1285,5,15120,trainPhase
2,7,B2,b,b,True,875,5,15120,trainPhase
3,7,A2,a,a,True,1270,5,15120,trainPhase
4,7,A1,a,a,True,4423,5,15120,trainPhase
5,7,B0,b,b,True,749,5,15120,trainPhase
0,8,B1,b,b,True,448,5,15120,trainPhase
1,8,A1,a,a,True,1606,5,15120,trainPhase
2,8,A0,a,a,True,1021,5,15120,trainPhase
3,8,B2,b,b,True,1894,5,15120,trainPhase
4,8,B0,b,b,True,1289,5,15120,trainPhase
5,8,A2,a,a,True,1382,5,15120,trainPhase
0,9,A0,a,a,True,1589,5,15120,trainPhase
1,9,A2,a,a,True,1270,5,15120,trainPhase
2,9,A1,a,b,False,1037,5,15120,trainPhase
3,9,B2,b,b,True,1175,5,15120,trainPhase
4,9,B1,b,b,True,851,5,15120,trainPhase
5,9,B0,b,b,True,843,5,15120,trainPhase
0,10,B1,b,b,True,784,5,15120,trainPhase
1,10,B0,b,b,True,741,5,15120,trainPhase
2,10,A0,a,a,True,1445,5,15120,trainPhase
3,10,A2,a,a,True,1918,5,15120,trainPhase
4,10,A1,a,a,True,2876,5,15120,trainPhase
5,10,B2,b,b,True,1401,5,15120,trainPhase
0,11,B0,b,b,True,2788,5,15120,trainPhase
1,11,B1,b,b,True,965,5,15120,trainPhase
2,11,B2,b,b,True,1058,5,15120,trainPhase
3,11,A0,a,a,True,1432,5,15120,trainPhase
4,11,A2,a,a,True,7128,5,15120,trainPhase
5,11,A1,a,a,True,1567,5,15120,trainPhase
0,12,B1,b,b,True,988,5,15120,trainPhase
0,0,A1,a,a,True,2335,5,15125,trainPhase
1,0,B0,b,a,False,3462,5,15125,trainPhase
2,0,B1,b,b,True,1689,5,15125,trainPhase
3,0,A0,a,a,True,3543,5,15125,trainPhase
4,0,A2,a,b,False,1041,5,15125,trainPhase
5,0,B2,b,b,True,4952,5,15125,trainPhase
0,1,A0,a,a,True,2492,5,15125,trainPhase
1,1,B2,b,b,True,1789,5,15125,trainPhase
2,1,B0,b,b,True,992,5,15125,trainPhase
3,1,B1,b,b,True,1055,5,15125,trainPhase
4,1,A2,a,b,False,2307,5,15125,trainPhase
5,1,A1,a,a,True,2509,5,15125,trainPhase
0,2,A0,a,a,True,1715,5,15125,trainPhase
1,2,A2,a,b,False,2578,5,15125,trainPhase
2,2,B1,b,b,True,2926,5,15125,trainPhase
3,2,B2,b,b,True,2471,5,15125,trainPhase
4,2,A1,a,a,True,1179,5,15125,trainPhase
5,2,B0,b,b,True,1009,5,15125,trainPhase
0,3,B1,b,b,True,1015,5,15125,trainPhase
1,3,B0,b,b,True,976,5,15125,trainPhase
2,3,B2,b,b,True,945,5,15125,trainPhase
3,3,A1,a,a,True,1151,5,15125,trainPhase
4,3,A2,a,a,True,1317,5,15125,trainPhase
5,3,A0,a,a,True,868,5,15125,trainPhase
0,4,A2,a,b,False,2889,5,15125,trainPhase
1,4,B2,b,b,True,2155,5,15125,trainPhase
2,4,A1,a,a,True,3592,5,15125,trainPhase
3,4,A0,a,a,True,1782,5,15125,trainPhase
4,4,B1,b,b,True,2369,5,15125,trainPhase
5,4,B0,b,b,True,1074,5,15125,trainPhase
0,5,A2,a,b,False,2157,5,15125,trainPhase
1,5,A0,a,a,True,838,5,15125,trainPhase
2,5,B1,b,b,True,1609,5,15125,trainPhase
3,5,B0,b,b,True,2036,5,15125,trainPhase
4,5,B2,b,b,True,1144,5,15125,trainPhase
5,5,A1,a,a,True,994,5,15125,trainPhase
0,6,B0,b,b,True,1308,5,15125,trainPhase
1,6,A0,a,a,True,1561,5,15125,trainPhase
2,6,A2,a,a,True,1282,5,15125,trainPhase
3,6,B1,b,b,True,1376,5,15125,trainPhase
4,6,B2,b,b,True,1626,5,15125,trainPhase
5,6,A1,a,a,True,2046,5,15125,trainPhase
0,7,B1,b,b,True,2592,5,15125,trainPhase
1,7,A2,a,a,True,3493,5,15125,trainPhase
2,7,B2,b,b,True,1194,5,15125,trainPhase
3,7,B0,b,a,False,2232,5,15125,trainPhase
4,7,A1,a,a,True,1092,5,15125,trainPhase
5,7,A0,a,a,True,3843,5,15125,trainPhase
0,8,B1,b,b,True,821,5,15125,trainPhase
1,8,A1,a,a,True,2849,5,15125,trainPhase
2,8,A2,a,a,True,1640,5,15125,trainPhase
3,8,B2,b,b,True,1287,5,15125,trainPhase
4,8,A0,a,a,True,2338,5,15125,trainPhase
5,8,B0,b,b,True,3831,5,15125,trainPhase
0,9,B1,b,b,True,1413,5,15125,trainPhase
1,9,B0,b,b,True,2124,5,15125,trainPhase
2,9,A1,a,b,False,1513,5,15125,trainPhase
3,9,A2,a,a,True,3132,5,15125,trainPhase
4,9,B2,b,b,True,1974,5,15125,trainPhase
5,9,A0,a,a,True,1157,5,15125,trainPhase
0,10,A2,a,a,True,4871,5,15125,trainPhase
1,10,B2,b,b,True,1073,5,15125,trainPhase
2,10,B0,b,a,False,1432,5,15125,trainPhase
3,10,A0,a,a,True,1403,5,15125,trainPhase
4,10,A1,a,b,False,3307,5,15125,trainPhase
5,10,B1,b,b,True,848,5,15125,trainPhase
0,11,A0,a,a,True,3579,5,15125,trainPhase
1,11,B2,b,b,True,1280,5,15125,trainPhase
2,11,B0,b,b,True,2096,5,15125,trainPhase
3,11,A1,a,a,True,1065,5,15125,trainPhase
4,11,A2,a,b,False,1425,5,15125,trainPhase
5,11,B1,b,b,True,1489,5,15125,trainPhase
0,12,A1,a,b,False,1784,5,15125,trainPhase
1,12,B1,b,b,True,1010,5,15125,trainPhase
2,12,A0,a,a,True,1213,5,15125,trainPhase
3,12,B2,b,b,True,1014,5,15125,trainPhase
4,12,A2,a,a,True,821,5,15125,trainPhase
5,12,B0,b,a,False,1334,5,15125,trainPhase
0,13,B1,b,b,True,1437,5,15125,trainPhase
1,13,B2,b,b,True,2300,5,15125,trainPhase
2,13,A2,a,a,True,2088,5,15125,trainPhase
3,13,A0,a,a,True,1396,5,15125,trainPhase
4,13,A1,a,b,False,1623,5,15125,trainPhase
5,13,B0,b,a,False,2014,5,15125,trainPhase
0,14,B0,b,b,True,1877,5,15125,trainPhase
1,14,A1,a,a,True,1451,5,15125,trainPhase
2,14,B2,b,b,True,920,5,15125,trainPhase
3,14,A0,a,a,True,855,5,15125,trainPhase
4,14,A2,a,a,True,2037,5,15125,trainPhase
5,14,B1,b,b,True,1120,5,15125,trainPhase
0,0,A0,a,a,True,3224,5,15130,trainPhase
1,0,B1,b,a,False,2227,5,15130,trainPhase
2,0,B2,b,b,True,1499,5,15130,trainPhase
3,0,A2,a,a,True,2361,5,15130,trainPhase
4,0,B0,b,b,True,1599,5,15130,trainPhase
5,0,A1,a,a,True,1569,5,15130,trainPhase
0,1,B2,b,b,True,1331,5,15130,trainPhase
1,1,B1,b,b,True,1763,5,15130,trainPhase
2,1,B0,b,a,False,1290,5,15130,trainPhase
3,1,A2,a,a,True,1637,5,15130,trainPhase
4,1,A0,a,a,True,1324,5,15130,trainPhase
5,1,A1,a,a,True,1456,5,15130,trainPhase
0,2,A0,a,a,True,1157,5,15130,trainPhase
1,2,B1,b,b,True,1080,5,15130,trainPhase
2,2,A1,a,a,True,1108,5,15130,trainPhase
3,2,B0,b,a,False,2380,5,15130,trainPhase
4,2,B2,b,b,True,931,5,15130,trainPhase
5,2,A2,a,b,False,1251,5,15130,trainPhase
0,3,A0,a,a,True,1062,5,15130,trainPhase
1,3,B0,b,b,True,1730,5,15130,trainPhase
2,3,B1,b,b,True,971,5,15130,trainPhase
3,3,B2,b,b,True,878,5,15130,trainPhase
4,3,A2,a,b,False,2795,5,15130,trainPhase
5,3,A1,a,a,True,1014,5,15130,trainPhase
0,4,A0,a,a,True,1085,5,15130,trainPhase
1,4,B2,b,b,True,1470,5,15130,trainPhase
2,4,A1,a,a,True,1250,5,15130,trainPhase
3,4,B0,b,b,True,878,5,15130,trainPhase
4,4,B1,b,b,True,767,5,15130,trainPhase
5,4,A2,a,a,True,2386,5,15130,trainPhase
0,5,A2,a,a,True,1326,5,15130,trainPhase
1,5,B1,b,b,True,1224,5,15130,trainPhase
2,5,A0,a,a,True,832,5,15130,trainPhase
3,5,B2,b,b,True,974,5,15130,trainPhase
4,5,B0,b,b,True,673,5,15130,trainPhase
5,5,A1,a,a,True,1212,5,15130,trainPhase
0,6,A0,a,a,True,862,5,15130,trainPhase
1,6,B2,b,b,True,782,5,15130,trainPhase
2,6,A1,a,a,True,1108,5,15130,trainPhase
0,0,A0,a,a,True,4553,5,15135,trainPhase
1,0,B1,b,a,False,2898,5,15135,trainPhase
2,0,B0,b,b,True,2964,5,15135,trainPhase
3,0,A2,a,a,True,2042,5,15135,trainPhase
4,0,B2,b,b,True,1308,5,15135,trainPhase
5,0,A1,a,b,False,2407,5,15135,trainPhase
0,1,B0,b,b,True,5240,5,15135,trainPhase
1,1,A2,a,a,True,1214,5,15135,trainPhase
2,1,B1,b,b,True,1403,5,15135,trainPhase
3,1,A1,a,a,True,1737,5,15135,trainPhase
4,1,B2,b,b,True,2641,5,15135,trainPhase
5,1,A0,a,a,True,840,5,15135,trainPhase
0,2,A2,a,a,True,1690,5,15135,trainPhase
1,2,B2,b,b,True,880,5,15135,trainPhase
2,2,A1,a,a,True,1636,5,15135,trainPhase
3,2,B1,b,b,True,952,5,15135,trainPhase
4,2,B0,b,a,False,2056,5,15135,trainPhase
5,2,A0,a,a,True,1174,5,15135,trainPhase
0,3,B1,b,b,True,2494,5,15135,trainPhase
1,3,A0,a,a,True,785,5,15135,trainPhase
2,3,A1,a,a,True,2612,5,15135,trainPhase
3,3,A2,a,a,True,1052,5,15135,trainPhase
4,3,B0,b,a,False,2090,5,15135,trainPhase
5,3,B2,b,b,True,916,5,15135,trainPhase
0,4,A1,a,a,True,764,5,15135,trainPhase
1,4,B2,b,b,True,838,5,15135,trainPhase
2,4,B0,b,b,True,1358,5,15135,trainPhase
3,4,B1,b,b,True,883,5,15135,trainPhase
4,4,A2,a,a,True,1771,5,15135,trainPhase
5,4,A0,a,a,True,1611,5,15135,trainPhase
0,5,B0,b,a,False,3413,5,15135,trainPhase
1,5,A1,a,a,True,4619,5,15135,trainPhase
2,5,A0,a,a,True,1749,5,15135,trainPhase
3,5,A2,a,a,True,899,5,15135,trainPhase
4,5,B2,b,b,True,2358,5,15135,trainPhase
5,5,B1,b,b,True,1643,5,15135,trainPhase
0,6,B1,b,b,True,810,5,15135,trainPhase
1,6,B0,b,b,True,7986,5,15135,trainPhase
2,6,A2,a,a,True,1430,5,15135,trainPhase
3,6,A0,a,a,True,1097,5,15135,trainPhase
4,6,A1,a,a,True,1143,5,15135,trainPhase
5,6,B2,b,b,True,911,5,15135,trainPhase
0,7,B1,b,b,True,1579,5,15135,trainPhase
1,7,A0,a,a,True,1363,5,15135,trainPhase
2,7,B0,b,b,True,3100,5,15135,trainPhase
3,7,B2,b,b,True,3414,5,15135,trainPhase
4,7,A1,a,a,True,4692,5,15135,trainPhase
0,0,A0,a,a,True,2965,5,15140,trainPhase
1,0,A2,a,a,True,2441,5,15140,trainPhase
2,0,B0,b,b,True,2442,5,15140,trainPhase
3,0,A1,a,b,False,2549,5,15140,trainPhase
4,0,B1,b,b,True,2677,5,15140,trainPhase
5,0,B2,b,b,True,1304,5,15140,trainPhase
0,1,A0,a,a,True,1283,5,15140,trainPhase
1,1,A1,a,a,True,1485,5,15140,trainPhase
2,1,B2,b,b,True,1135,5,15140,trainPhase
3,1,B0,b,b,True,853,5,15140,trainPhase
4,1,B1,b,b,True,814,5,15140,trainPhase
5,1,A2,a,b,False,1453,5,15140,trainPhase
0,2,A1,a,a,True,750,5,15140,trainPhase
1,2,A0,a,a,True,726,5,15140,trainPhase
2,2,A2,a,a,True,1518,5,15140,trainPhase
3,2,B2,b,b,True,838,5,15140,trainPhase
4,2,B1,b,b,True,738,5,15140,trainPhase
5,2,B0,b,b,True,701,5,15140,trainPhase
0,3,B2,b,b,True,753,5,15140,trainPhase
1,3,A2,a,a,True,1537,5,15140,trainPhase
2,3,B1,b,b,True,922,5,15140,trainPhase
3,3,A0,a,a,True,946,5,15140,trainPhase
4,3,B0,b,b,True,1668,5,15140,trainPhase
5,3,A1,a,a,True,1202,5,15140,trainPhase
0,4,B1,b,b,True,1033,5,15140,trainPhase
1,4,A0,a,a,True,629,5,15140,trainPhase
2,4,B0,b,b,True,1904,5,15140,trainPhase
3,4,B2,b,b,True,1241,5,15140,trainPhase
0,0,B0,b,a,False,2653,5,15145,trainPhase
1,0,B1,b,b,True,1674,5,15145,trainPhase
2,0,A0,a,b,False,1325,5,15145,trainPhase
3,0,A1,a,b,False,1646,5,15145,trainPhase
4,0,B2,b,b,True,1687,5,15145,trainPhase
5,0,A2,a,a,True,1008,5,15145,trainPhase
0,1,B2,b,b,True,846,5,15145,trainPhase
1,1,A1,a,a,True,750,5,15145,trainPhase
2,1,A0,a,a,True,1029,5,15145,trainPhase
3,1,A2,a,a,True,1038,5,15145,trainPhase
4,1,B0,b,b,True,966,5,15145,trainPhase
5,1,B1,b,b,True,1053,5,15145,trainPhase
0,2,B0,b,b,True,734,5,15145,trainPhase
1,2,B2,b,b,True,693,5,15145,trainPhase
2,2,A0,a,a,True,717,5,15145,trainPhase
3,2,A2,a,b,False,996,5,15145,trainPhase
4,2,A1,a,a,True,942,5,15145,trainPhase
5,2,B1,b,b,True,733,5,15145,trainPhase
0,3,A0,a,a,True,813,5,15145,trainPhase
1,3,A1,a,a,True,1102,5,15145,trainPhase
2,3,B1,b,b,True,718,5,15145,trainPhase
3,3,B0,b,b,True,1252,5,15145,trainPhase
4,3,A2,a,a,True,910,5,15145,trainPhase
5,3,B2,b,b,True,693,5,15145,trainPhase
0,4,B2,b,b,True,669,5,15145,trainPhase
1,4,A2,a,a,True,820,5,15145,trainPhase
2,4,A0,a,a,True,861,5,15145,trainPhase
3,4,B1,b,b,True,501,5,15145,trainPhase
4,4,A1,a,a,True,749,5,15145,trainPhase
5,4,B0,b,b,True,534,5,15145,trainPhase
0,5,A1,a,a,True,942,5,15145,trainPhase
1,5,B2,b,b,True,595,5,15145,trainPhase
0,0,A0,a,b,False,4185,5,15150,trainPhase
1,0,B2,b,b,True,2113,5,15150,trainPhase
2,0,A2,a,a,True,1710,5,15150,trainPhase
3,0,B0,b,b,True,1010,5,15150,trainPhase
4,0,A1,a,a,True,3126,5,15150,trainPhase
5,0,B1,b,b,True,2104,5,15150,trainPhase
0,1,A2,a,a,True,1823,5,15150,trainPhase
1,1,B1,b,b,True,1080,5,15150,trainPhase
2,1,B2,b,b,True,1038,5,15150,trainPhase
3,1,B0,b,a,False,5017,5,15150,trainPhase
4,1,A1,a,a,True,2032,5,15150,trainPhase
5,1,A0,a,a,True,1225,5,15150,trainPhase
0,2,B0,b,b,True,1101,5,15150,trainPhase
1,2,B2,b,b,True,1234,5,15150,trainPhase
2,2,A0,a,a,True,1244,5,15150,trainPhase
3,2,A2,a,b,False,2401,5,15150,trainPhase
4,2,B1,b,b,True,2864,5,15150,trainPhase
5,2,A1,a,a,True,984,5,15150,trainPhase
0,3,B1,b,b,True,1439,5,15150,trainPhase
1,3,A0,a,a,True,1371,5,15150,trainPhase
2,3,B0,b,b,True,2125,5,15150,trainPhase
3,3,A2,a,b,False,1229,5,15150,trainPhase
4,3,B2,b,b,True,1110,5,15150,trainPhase
5,3,A1,a,a,True,2736,5,15150,trainPhase
0,4,B2,b,b,True,1926,5,15150,trainPhase
1,4,B0,b,b,True,2188,5,15150,trainPhase
2,4,A1,a,a,True,873,5,15150,trainPhase
3,4,A0,a,a,True,1991,5,15150,trainPhase
4,4,A2,a,b,False,5465,5,15150,trainPhase
5,4,B1,b,b,True,1177,5,15150,trainPhase
0,5,B0,b,b,True,1101,5,15150,trainPhase
1,5,A0,a,a,True,1297,5,15150,trainPhase
2,5,B2,b,b,True,1306,5,15150,trainPhase
3,5,A2,a,b,False,1165,5,15150,trainPhase
4,5,B1,b,b,True,1807,5,15150,trainPhase
5,5,A1,a,a,True,1910,5,15150,trainPhase
0,6,A0,a,a,True,974,5,15150,trainPhase
1,6,A2,a,a,True,2064,5,15150,trainPhase
2,6,B1,b,b,True,1159,5,15150,trainPhase
3,6,B2,b,b,True,1020,5,15150,trainPhase
4,6,B0,b,b,True,1192,5,15150,trainPhase
5,6,A1,a,a,True,1790,5,15150,trainPhase
0,7,A2,a,a,True,1535,5,15150,trainPhase
1,7,B0,b,b,True,1017,5,15150,trainPhase
2,7,A1,a,a,True,1191,5,15150,trainPhase
3,7,B2,b,b,True,1078,5,15150,trainPhase
4,7,B1,b,b,True,1553,5,15150,trainPhase
5,7,A0,a,a,True,1309,5,15150,trainPhase
0,8,A1,a,a,True,1207,5,15150,trainPhase
1,8,A0,a,a,True,1199,5,15150,trainPhase
0,0,B1,b,b,True,2892,5,15155,trainPhase
1,0,B2,b,b,True,1902,5,15155,trainPhase
2,0,A2,a,b,False,1512,5,15155,trainPhase
3,0,A0,a,a,True,1176,5,15155,trainPhase
4,0,B0,b,b,True,1563,5,15155,trainPhase
5,0,A1,a,b,False,1173,5,15155,trainPhase
0,1,A1,a,a,True,1660,5,15155,trainPhase
1,1,B2,b,b,True,1485,5,15155,trainPhase
2,1,B0,b,a,False,2438,5,15155,trainPhase
3,1,A2,a,a,True,1263,5,15155,trainPhase
4,1,A0,a,b,False,3715,5,15155,trainPhase
5,1,B1,b,b,True,1401,5,15155,trainPhase
0,2,B1,b,b,True,1153,5,15155,trainPhase
1,2,A2,a,a,True,1055,5,15155,trainPhase
2,2,A1,a,a,True,1722,5,15155,trainPhase
3,2,A0,a,a,True,1151,5,15155,trainPhase
4,2,B2,b,b,True,1272,5,15155,trainPhase
5,2,B0,b,b,True,2386,5,15155,trainPhase
0,3,A0,a,a,True,1574,5,15155,trainPhase
1,3,B0,b,a,False,1563,5,15155,trainPhase
2,3,B1,b,b,True,1257,5,15155,trainPhase
3,3,A2,a,a,True,843,5,15155,trainPhase
4,3,B2,b,b,True,960,5,15155,trainPhase
5,3,A1,a,a,True,1003,5,15155,trainPhase
0,4,A1,a,a,True,1079,5,15155,trainPhase
1,4,A2,a,a,True,1059,5,15155,trainPhase
2,4,B1,b,b,True,1185,5,15155,trainPhase
3,4,A0,a,a,True,1379,5,15155,trainPhase
4,4,B2,b,b,True,1038,5,15155,trainPhase
5,4,B0,b,b,True,1073,5,15155,trainPhase
0,5,B1,b,b,True,941,5,15155,trainPhase
1,5,A2,a,a,True,816,5,15155,trainPhase
2,5,B2,b,b,True,882,5,15155,trainPhase
3,5,A1,a,a,True,959,5,15155,trainPhase
4,5,B0,b,b,True,1006,5,15155,trainPhase
5,5,A0,a,a,True,843,5,15155,trainPhase
0,0,A1,a,a,True,4689,5,15160,trainPhase
1,0,B2,b,b,True,1629,5,15160,trainPhase
2,0,A0,a,a,True,2062,5,15160,trainPhase
3,0,A2,a,b,False,1955,5,15160,trainPhase
4,0,B1,b,b,True,2210,5,15160,trainPhase
5,0,B0,b,a,False,1716,5,15160,trainPhase
0,1,A1,a,a,True,1368,5,15160,trainPhase
1,1,B1,b,b,True,1463,5,15160,trainPhase
2,1,B0,b,b,True,1706,5,15160,trainPhase
3,1,A2,a,a,True,1446,5,15160,trainPhase
4,1,A0,a,a,True,1566,5,15160,trainPhase
5,1,B2,b,b,True,926,5,15160,trainPhase
0,2,A2,a,a,True,1734,5,15160,trainPhase
1,2,A1,a,a,True,1261,5,15160,trainPhase
2,2,B2,b,b,True,1516,5,15160,trainPhase
3,2,B1,b,b,True,1501,5,15160,trainPhase
4,2,B0,b,b,True,1590,5,15160,trainPhase
5,2,A0,a,a,True,1182,5,15160,trainPhase
0,3,B2,b,b,True,1101,5,15160,trainPhase
1,3,A1,a,a,True,1109,5,15160,trainPhase
2,3,A0,a,a,True,958,5,15160,trainPhase
3,3,A2,a,a,True,1237,5,15160,trainPhase
0,0,A0,a,a,True,8294,5,15187,trainPhase
1,0,B2,b,a,False,3957,5,15187,trainPhase
2,0,A1,a,a,True,3655,5,15187,trainPhase
3,0,A2,a,a,True,2165,5,15187,trainPhase
4,0,B0,b,a,False,2834,5,15187,trainPhase
5,0,B1,b,b,True,1259,5,15187,trainPhase
0,1,A2,a,a,True,1987,5,15187,trainPhase
1,1,A0,a,a,True,1302,5,15187,trainPhase
2,1,B1,b,b,True,1012,5,15187,trainPhase
3,1,B0,b,b,True,1910,5,15187,trainPhase
4,1,B2,b,b,True,1508,5,15187,trainPhase
5,1,A1,a,a,True,1509,5,15187,trainPhase
0,2,B1,b,b,True,1393,5,15187,trainPhase
1,2,A0,a,a,True,1375,5,15187,trainPhase
2,2,A1,a,a,True,1068,5,15187,trainPhase
3,2,A2,a,a,True,2106,5,15187,trainPhase
4,2,B0,b,b,True,2158,5,15187,trainPhase
5,2,B2,b,b,True,1009,5,15187,trainPhase
0,3,B2,b,b,True,1014,5,15187,trainPhase
1,3,B1,b,b,True,1366,5,15187,trainPhase
2,3,A0,a,a,True,1018,5,15187,trainPhase
0,0,A1,a,a,True,2430,5,15205,trainPhase
1,0,B2,b,a,False,1927,5,15205,trainPhase
2,0,B1,b,b,True,1943,5,15205,trainPhase
3,0,A2,a,a,True,1659,5,15205,trainPhase
4,0,B0,b,b,True,10390,5,15205,trainPhase
5,0,A0,a,a,True,1541,5,15205,trainPhase
0,1,A2,a,b,False,1333,5,15205,trainPhase
1,1,B0,b,b,True,1532,5,15205,trainPhase
2,1,B2,b,b,True,1158,5,15205,trainPhase
3,1,A0,a,a,True,981,5,15205,trainPhase
4,1,A1,a,a,True,1049,5,15205,trainPhase
5,1,B1,b,b,True,878,5,15205,trainPhase
0,2,B1,b,b,True,749,5,15205,trainPhase
1,2,A2,a,a,True,886,5,15205,trainPhase
2,2,A1,a,a,True,1101,5,15205,trainPhase
3,2,B2,b,b,True,902,5,15205,trainPhase
4,2,B0,b,b,True,1303,5,15205,trainPhase
5,2,A0,a,a,True,1039,5,15205,trainPhase
0,3,A1,a,a,True,669,5,15205,trainPhase
1,3,B0,b,b,True,773,5,15205,trainPhase
2,3,A0,a,a,True,966,5,15205,trainPhase
3,3,A2,a,b,False,1022,5,15205,trainPhase
4,3,B2,b,b,True,1109,5,15205,trainPhase
5,3,B1,b,b,True,1150,5,15205,trainPhase
0,4,B0,b,b,True,756,5,15205,trainPhase
1,4,A2,a,b,False,2654,5,15205,trainPhase
2,4,A0,a,a,True,1207,5,15205,trainPhase
3,4,B2,b,b,True,886,5,15205,trainPhase
4,4,B1,b,b,True,941,5,15205,trainPhase
5,4,A1,a,a,True,1248,5,15205,trainPhase
0,5,A1,a,a,True,733,5,15205,trainPhase
1,5,B1,b,b,True,2452,5,15205,trainPhase
2,5,A2,a,b,False,790,5,15205,trainPhase
3,5,B2,b,b,True,941,5,15205,trainPhase
4,5,A0,a,a,True,781,5,15205,trainPhase
5,5,B0,b,a,False,1534,5,15205,trainPhase
0,6,A0,a,a,True,1036,5,15205,trainPhase
1,6,B1,b,b,True,907,5,15205,trainPhase
2,6,A1,a,a,True,1068,5,15205,trainPhase
3,6,B2,b,b,True,886,5,15205,trainPhase
4,6,B0,b,b,True,1048,5,15205,trainPhase
5,6,A2,a,b,False,1502,5,15205,trainPhase
0,7,A1,a,a,True,838,5,15205,trainPhase
1,7,B2,b,b,True,870,5,15205,trainPhase
2,7,B1,b,b,True,1042,5,15205,trainPhase
3,7,A0,a,a,True,954,5,15205,trainPhase
4,7,B0,b,b,True,2112,5,15205,trainPhase
5,7,A2,a,a,True,2254,5,15205,trainPhase
0,8,A1,a,a,True,1437,5,15205,trainPhase
1,8,A2,a,a,True,1352,5,15205,trainPhase
2,8,A0,a,a,True,812,5,15205,trainPhase
3,8,B1,b,b,True,869,5,15205,trainPhase
4,8,B0,b,b,True,652,5,15205,trainPhase
5,8,B2,b,b,True,946,5,15205,trainPhase
0,9,A0,a,a,True,738,5,15205,trainPhase
1,9,B0,b,b,True,2518,5,15205,trainPhase
2,9,A1,a,a,True,925,5,15205,trainPhase
3,9,B2,b,b,True,809,5,15205,trainPhase
0,0,A2,a,b,False,5781,5,15210,trainPhase
1,0,B0,b,a,False,1071,5,15210,trainPhase
2,0,B1,b,a,False,1613,5,15210,trainPhase
3,0,A0,a,b,False,1267,5,15210,trainPhase
4,0,B2,b,b,True,1508,5,15210,trainPhase
5,0,A1,a,a,True,2134,5,15210,trainPhase
0,1,A2,a,a,True,2238,5,15210,trainPhase
1,1,A1,a,a,True,1194,5,15210,trainPhase
2,1,A0,a,a,True,910,5,15210,trainPhase
3,1,B0,b,b,True,662,5,15210,trainPhase
4,1,B1,b,b,True,1013,5,15210,trainPhase
5,1,B2,b,b,True,742,5,15210,trainPhase
0,2,B1,b,b,True,1173,5,15210,trainPhase
1,2,A0,a,a,True,750,5,15210,trainPhase
2,2,A2,a,b,False,1062,5,15210,trainPhase
3,2,B0,b,a,False,1550,5,15210,trainPhase
4,2,B2,b,b,True,600,5,15210,trainPhase
5,2,A1,a,a,True,933,5,15210,trainPhase
0,3,A2,a,a,True,1045,5,15210,trainPhase
1,3,B2,b,b,True,605,5,15210,trainPhase
2,3,B0,b,a,False,765,5,15210,trainPhase
3,3,A0,a,a,True,1005,5,15210,trainPhase
4,3,B1,b,b,True,725,5,15210,trainPhase
5,3,A1,a,a,True,813,5,15210,trainPhase
0,4,B2,b,b,True,621,5,15210,trainPhase
1,4,A2,a,a,True,765,5,15210,trainPhase
2,4,A0,a,a,True,909,5,15210,trainPhase
3,4,B1,b,b,True,971,5,15210,trainPhase
4,4,A1,a,a,True,704,5,15210,trainPhase
5,4,B0,b,b,True,549,5,15210,trainPhase
0,5,A2,a,b,False,1389,5,15210,trainPhase
1,5,B1,b,b,True,805,5,15210,trainPhase
2,5,A0,a,a,True,626,5,15210,trainPhase
3,5,B2,b,b,True,577,5,15210,trainPhase
4,5,A1,a,a,True,630,5,15210,trainPhase
5,5,B0,b,b,True,1148,5,15210,trainPhase
0,6,A1,a,a,True,664,5,15210,trainPhase
1,6,A0,a,a,True,878,5,15210,trainPhase
2,6,A2,a,b,False,696,5,15210,trainPhase
3,6,B0,b,a,False,1006,5,15210,trainPhase
4,6,B2,b,b,True,429,5,15210,trainPhase
5,6,B1,b,b,True,1093,5,15210,trainPhase
0,7,A0,a,a,True,594,5,15210,trainPhase
1,7,B1,b,b,True,646,5,15210,trainPhase
2,7,A2,a,a,True,1069,5,15210,trainPhase
3,7,B2,b,b,True,374,5,15210,trainPhase
4,7,A1,a,a,True,485,5,15210,trainPhase
5,7,B0,b,a,False,860,5,15210,trainPhase
0,8,A2,a,b,False,493,5,15210,trainPhase
1,8,B1,b,a,False,341,5,15210,trainPhase
2,8,A1,a,b,False,341,5,15210,trainPhase
3,8,B2,b,b,True,684,5,15210,trainPhase
4,8,B0,b,b,True,996,5,15210,trainPhase
5,8,A0,a,a,True,630,5,15210,trainPhase
0,9,B0,b,b,True,718,5,15210,trainPhase
1,9,B1,b,b,True,820,5,15210,trainPhase
2,9,B2,b,b,True,765,5,15210,trainPhase
3,9,A1,a,a,True,821,5,15210,trainPhase
4,9,A2,a,b,False,750,5,15210,trainPhase
5,9,A0,a,a,True,502,5,15210,trainPhase
0,10,A2,a,b,False,934,5,15210,trainPhase
1,10,A1,a,a,True,1021,5,15210,trainPhase
2,10,B1,b,b,True,615,5,15210,trainPhase
3,10,A0,a,a,True,637,5,15210,trainPhase
4,10,B0,b,b,True,670,5,15210,trainPhase
5,10,B2,b,b,True,760,5,15210,trainPhase
0,11,B0,b,b,True,614,5,15210,trainPhase
1,11,A1,a,a,True,885,5,15210,trainPhase
2,11,B1,b,b,True,589,5,15210,trainPhase
3,11,A0,a,a,True,657,5,15210,trainPhase
4,11,A2,a,b,False,726,5,15210,trainPhase
5,11,B2,b,b,True,774,5,15210,trainPhase
0,12,A0,a,a,True,807,5,15210,trainPhase
1,12,A1,a,b,False,1934,5,15210,trainPhase
2,12,B2,b,b,True,760,5,15210,trainPhase
3,12,B0,b,a,False,688,5,15210,trainPhase
4,12,B1,b,b,True,406,5,15210,trainPhase
5,12,A2,a,b,False,917,5,15210,trainPhase
0,13,A1,a,a,True,571,5,15210,trainPhase
1,13,A2,a,a,True,932,5,15210,trainPhase
2,13,A0,a,a,True,886,5,15210,trainPhase
3,13,B0,b,b,True,674,5,15210,trainPhase
4,13,B1,b,b,True,742,5,15210,trainPhase
5,13,B2,b,b,True,536,5,15210,trainPhase
0,14,A0,a,a,True,714,5,15210,trainPhase
1,14,B0,b,b,True,670,5,15210,trainPhase
2,14,A2,a,b,False,830,5,15210,trainPhase
3,14,B2,b,b,True,801,5,15210,trainPhase
4,14,A1,a,a,True,678,5,15210,trainPhase
5,14,B1,b,b,True,517,5,15210,trainPhase
0,0,A2,a,b,False,2926,5,15215,trainPhase
1,0,B2,b,a,False,1862,5,15215,trainPhase
2,0,B0,b,a,False,2126,5,15215,trainPhase
3,0,A1,a,b,False,2821,5,15215,trainPhase
4,0,B1,b,b,True,4718,5,15215,trainPhase
5,0,A0,a,a,True,1614,5,15215,trainPhase
0,1,B0,b,b,True,1421,5,15215,trainPhase
1,1,B2,b,b,True,1285,5,15215,trainPhase
2,1,A2,a,a,True,1126,5,15215,trainPhase
3,1,A1,a,b,False,1818,5,15215,trainPhase
4,1,A0,a,a,True,1352,5,15215,trainPhase
5,1,B1,b,b,True,1070,5,15215,trainPhase
0,2,A2,a,a,True,2424,5,15215,trainPhase
1,2,A1,a,a,True,3581,5,15215,trainPhase
2,2,B1,b,b,True,2272,5,15215,trainPhase
3,2,A0,a,a,True,1357,5,15215,trainPhase
4,2,B0,b,b,True,1401,5,15215,trainPhase
5,2,B2,b,b,True,1428,5,15215,trainPhase
0,3,A1,a,a,True,1635,5,15215,trainPhase
1,3,B1,b,b,True,2245,5,15215,trainPhase
2,3,A2,a,b,False,2880,5,15215,trainPhase
3,3,B2,b,b,True,1494,5,15215,trainPhase
4,3,B0,b,a,False,1994,5,15215,trainPhase
5,3,A0,a,a,True,3733,5,15215,trainPhase
0,4,A1,a,a,True,2222,5,15215,trainPhase
1,4,A2,a,a,True,1798,5,15215,trainPhase
2,4,B2,b,b,True,1133,5,15215,trainPhase
3,4,A0,a,a,True,979,5,15215,trainPhase
4,4,B1,b,b,True,1131,5,15215,trainPhase
5,4,B0,b,b,True,1181,5,15215,trainPhase
0,5,B0,b,b,True,1021,5,15215,trainPhase
1,5,A1,a,a,True,1375,5,15215,trainPhase
2,5,B1,b,b,True,926,5,15215,trainPhase
3,5,A0,a,a,True,962,5,15215,trainPhase
4,5,A2,a,a,True,1126,5,15215,trainPhase
5,5,B2,b,b,True,8500,5,15215,trainPhase
0,6,A1,a,b,False,2656,5,15215,trainPhase
1,6,B0,b,b,True,1147,5,15215,trainPhase
2,6,B2,b,b,True,1796,5,15215,trainPhase
3,6,A0,a,a,True,821,5,15215,trainPhase
4,6,A2,a,a,True,1326,5,15215,trainPhase
5,6,B1,b,b,True,1142,5,15215,trainPhase
0,7,A0,a,a,True,869,5,15215,trainPhase
1,7,A2,a,a,True,1143,5,15215,trainPhase
2,7,B1,b,b,True,980,5,15215,trainPhase
3,7,A1,a,a,True,1590,5,15215,trainPhase
4,7,B2,b,b,True,1116,5,15215,trainPhase
5,7,B0,b,b,True,1893,5,15215,trainPhase
0,8,B0,b,b,True,853,5,15215,trainPhase
1,8,A1,a,a,True,2582,5,15215,trainPhase
2,8,B2,b,b,True,829,5,15215,trainPhase
3,8,A2,a,a,True,869,5,15215,trainPhase
4,8,B1,b,b,True,2901,5,15215,trainPhase
0,0,B0,b,b,True,2505,5,15226,trainPhase
1,0,A0,a,b,False,1375,5,15226,trainPhase
2,0,B2,b,b,True,953,5,15226,trainPhase
3,0,B1,b,b,True,1310,5,15226,trainPhase
4,0,A1,a,a,True,1662,5,15226,trainPhase
5,0,A2,a,a,True,1116,5,15226,trainPhase
0,1,B0,b,b,True,993,5,15226,trainPhase
1,1,B2,b,b,True,834,5,15226,trainPhase
2,1,A1,a,a,True,790,5,15226,trainPhase
3,1,B1,b,b,True,784,5,15226,trainPhase
4,1,A2,a,a,True,822,5,15226,trainPhase
5,1,A0,a,a,True,708,5,15226,trainPhase
0,2,B0,b,b,True,827,5,15226,trainPhase
1,2,A2,a,b,False,1192,5,15226,trainPhase
2,2,B1,b,b,True,942,5,15226,trainPhase
3,2,A1,a,a,True,951,5,15226,trainPhase
4,2,B2,b,b,True,854,5,15226,trainPhase
5,2,A0,a,a,True,638,5,15226,trainPhase
0,3,B0,b,b,True,710,5,15226,trainPhase
1,3,A2,a,b,False,759,5,15226,trainPhase
2,3,B1,b,b,True,796,5,15226,trainPhase
3,3,A0,a,a,True,892,5,15226,trainPhase
4,3,B2,b,b,True,632,5,15226,trainPhase
5,3,A1,a,a,True,940,5,15226,trainPhase
0,4,B0,b,b,True,621,5,15226,trainPhase
1,4,B1,b,b,True,918,5,15226,trainPhase
2,4,A1,a,a,True,1150,5,15226,trainPhase
3,4,A0,a,a,True,749,5,15226,trainPhase
4,4,A2,a,b,False,1262,5,15226,trainPhase
5,4,B2,b,b,True,746,5,15226,trainPhase
0,5,A0,a,a,True,615,5,15226,trainPhase
1,5,B2,b,b,True,634,5,15226,trainPhase
2,5,A1,a,a,True,1230,5,15226,trainPhase
3,5,B1,b,b,True,670,5,15226,trainPhase
4,5,A2,a,a,True,1638,5,15226,trainPhase
5,5,B0,b,b,True,1944,5,15226,trainPhase
0,6,B2,b,b,True,971,5,15226,trainPhase
1,6,A2,a,b,False,1016,5,15226,trainPhase
2,6,A0,a,a,True,703,5,15226,trainPhase
3,6,A1,a,a,True,1046,5,15226,trainPhase
4,6,B0,b,b,True,809,5,15226,trainPhase
5,6,B1,b,b,True,576,5,15226,trainPhase
0,7,A0,a,a,True,760,5,15226,trainPhase
1,7,A1,a,a,True,588,5,15226,trainPhase
2,7,A2,a,a,True,1007,5,15226,trainPhase
3,7,B2,b,b,True,659,5,15226,trainPhase
4,7,B1,b,b,True,629,5,15226,trainPhase
5,7,B0,b,b,True,574,5,15226,trainPhase
0,8,A1,a,a,True,741,5,15226,trainPhase
1,8,A0,a,a,True,611,5,15226,trainPhase
2,8,A2,a,a,True,1339,5,15226,trainPhase
3,8,B0,b,b,True,1194,5,15226,trainPhase
4,8,B1,b,b,True,581,5,15226,trainPhase
5,8,B2,b,b,True,541,5,15226,trainPhase
0,0,B1,b,b,True,4137,5,15231,trainPhase
1,0,B0,b,a,False,1757,5,15231,trainPhase
2,0,B2,b,b,True,1382,5,15231,trainPhase
3,0,A2,a,a,True,1778,5,15231,trainPhase
4,0,A1,a,b,False,2030,5,15231,trainPhase
5,0,A0,a,a,True,1279,5,15231,trainPhase
0,1,A0,a,a,True,1166,5,15231,trainPhase
1,1,A2,a,a,True,2745,5,15231,trainPhase
2,1,A1,a,b,False,1435,5,15231,trainPhase
3,1,B2,b,b,True,1116,5,15231,trainPhase
4,1,B1,b,b,True,1321,5,15231,trainPhase
5,1,B0,b,b,True,1357,5,15231,trainPhase
0,2,B1,b,b,True,1128,5,15231,trainPhase
1,2,B2,b,b,True,806,5,15231,trainPhase
2,2,A2,a,a,True,948,5,15231,trainPhase
3,2,A1,a,a,True,1214,5,15231,trainPhase
4,2,A0,a,a,True,1204,5,15231,trainPhase
5,2,B0,b,a,False,1235,5,15231,trainPhase
0,3,A0,a,a,True,1631,5,15231,trainPhase
1,3,A2,a,a,True,959,5,15231,trainPhase
2,3,A1,a,b,False,847,5,15231,trainPhase
3,3,B1,b,b,True,1408,5,15231,trainPhase
4,3,B0,b,b,True,858,5,15231,trainPhase
5,3,B2,b,b,True,870,5,15231,trainPhase
0,4,A1,a,a,True,1229,5,15231,trainPhase
1,4,B2,b,b,True,888,5,15231,trainPhase
2,4,B1,b,b,True,851,5,15231,trainPhase
3,4,A0,a,a,True,849,5,15231,trainPhase
4,4,A2,a,a,True,1354,5,15231,trainPhase
5,4,B0,b,b,True,2246,5,15231,trainPhase
0,5,A2,a,a,True,963,5,15231,trainPhase
1,5,B1,b,b,True,938,5,15231,trainPhase
2,5,B2,b,b,True,825,5,15231,trainPhase
3,5,B0,b,b,True,1128,5,15231,trainPhase
4,5,A1,a,a,True,1078,5,15231,trainPhase
5,5,A0,a,a,True,910,5,15231,trainPhase
0,6,B2,b,b,True,1460,5,15231,trainPhase
0,0,B1,b,b,True,2656,5,15283,trainPhase
1,0,A0,a,b,False,2634,5,15283,trainPhase
2,0,A2,a,b,False,2557,5,15283,trainPhase
3,0,B2,b,b,True,2279,5,15283,trainPhase
4,0,A1,a,a,True,2327,5,15283,trainPhase
5,0,B0,b,a,False,1681,5,15283,trainPhase
0,1,B0,b,b,True,5737,5,15283,trainPhase
1,1,A2,a,a,True,2003,5,15283,trainPhase
2,1,A0,a,a,True,1437,5,15283,trainPhase
3,1,A1,a,a,True,1438,5,15283,trainPhase
4,1,B1,b,b,True,2240,5,15283,trainPhase
5,1,B2,b,b,True,1282,5,15283,trainPhase
0,2,B1,b,b,True,1124,5,15283,trainPhase
1,2,A1,a,a,True,3855,5,15283,trainPhase
2,2,B2,b,b,True,1483,5,15283,trainPhase
3,2,A2,a,a,True,1429,5,15283,trainPhase
4,2,B0,b,a,False,2152,5,15283,trainPhase
5,2,A0,a,a,True,4980,5,15283,trainPhase
0,3,B2,b,b,True,1256,5,15283,trainPhase
1,3,B0,b,a,False,1720,5,15283,trainPhase
2,3,A1,a,a,True,1760,5,15283,trainPhase
3,3,A0,a,a,True,2185,5,15283,trainPhase
4,3,B1,b,b,True,1113,5,15283,trainPhase
5,3,A2,a,a,True,1627,5,15283,trainPhase
0,4,A0,a,a,True,1482,5,15283,trainPhase
1,4,A1,a,b,False,5630,5,15283,trainPhase
2,4,A2,a,a,True,1319,5,15283,trainPhase
3,4,B0,b,b,True,1146,5,15283,trainPhase
4,4,B2,b,b,True,1164,5,15283,trainPhase
5,4,B1,b,b,True,1612,5,15283,trainPhase
0,5,B1,b,b,True,1037,5,15283,trainPhase
1,5,A2,a,a,True,1172,5,15283,trainPhase
2,5,A1,a,a,True,1230,5,15283,trainPhase
3,5,B2,b,b,True,1182,5,15283,trainPhase
4,5,A0,a,a,True,1070,5,15283,trainPhase
5,5,B0,b,b,True,1093,5,15283,trainPhase
0,6,B2,b,b,True,1653,5,15283,trainPhase
1,6,A2,a,a,True,3676,5,15283,trainPhase
2,6,B1,b,b,True,1038,5,15283,trainPhase
3,6,B0,b,b,True,1311,5,15283,trainPhase
4,6,A1,a,b,False,1214,5,15283,trainPhase
5,6,A0,a,a,True,1801,5,15283,trainPhase
0,7,B1,b,b,True,1117,5,15283,trainPhase
1,7,B2,b,b,True,1224,5,15283,trainPhase
2,7,B0,b,b,True,1019,5,15283,trainPhase
3,7,A1,a,b,False,3087,5,15283,trainPhase
4,7,A2,a,a,True,2831,5,15283,trainPhase
5,7,A0,a,a,True,847,5,15283,trainPhase
0,8,A1,a,b,False,1809,5,15283,trainPhase
1,8,B0,b,b,True,4986,5,15283,trainPhase
2,8,A0,a,a,True,1198,5,15283,trainPhase
3,8,B2,b,b,True,1118,5,15283,trainPhase
4,8,B1,b,b,True,773,5,15283,trainPhase
5,8,A2,a,a,True,3606,5,15283,trainPhase
0,9,B1,b,b,True,1175,5,15283,trainPhase
1,9,A2,a,a,True,1350,5,15283,trainPhase
2,9,A0,a,a,True,1123,5,15283,trainPhase
3,9,B2,b,b,True,1773,5,15283,trainPhase
4,9,A1,a,b,False,2854,5,15283,trainPhase
5,9,B0,b,b,True,1196,5,15283,trainPhase
0,10,B0,b,b,True,594,5,15283,trainPhase
1,10,A0,a,a,True,3557,5,15283,trainPhase
2,10,B2,b,b,True,1302,5,15283,trainPhase
3,10,A1,a,a,True,2353,5,15283,trainPhase
4,10,A2,a,a,True,991,5,15283,trainPhase
5,10,B1,b,b,True,1166,5,15283,trainPhase
0,11,B1,b,b,True,717,5,15283,trainPhase
1,11,B2,b,b,True,764,5,15283,trainPhase
2,11,A0,a,a,True,1463,5,15283,trainPhase
3,11,A1,a,a,True,1741,5,15283,trainPhase
4,11,A2,a,a,True,1078,5,15283,trainPhase
5,11,B0,b,b,True,2190,5,15283,trainPhase
0,12,B1,b,b,True,758,5,15283,trainPhase
1,12,B2,b,b,True,524,5,15283,trainPhase
2,12,B0,b,b,True,470,5,15283,trainPhase
0,0,A0,a,a,True,5564,5,15288,trainPhase
1,0,B1,b,a,False,2209,5,15288,trainPhase
2,0,A1,a,a,True,1002,5,15288,trainPhase
3,0,B2,b,b,True,919,5,15288,trainPhase
4,0,A2,a,a,True,997,5,15288,trainPhase
5,0,B0,b,b,True,904,5,15288,trainPhase
0,1,A2,a,a,True,745,5,15288,trainPhase
1,1,A0,a,a,True,946,5,15288,trainPhase
2,1,B0,b,a,False,1961,5,15288,trainPhase
3,1,A1,a,a,True,1259,5,15288,trainPhase
4,1,B2,b,b,True,711,5,15288,trainPhase
5,1,B1,b,b,True,1024,5,15288,trainPhase
0,2,B2,b,b,True,643,5,15288,trainPhase
1,2,A2,a,a,True,1158,5,15288,trainPhase
2,2,A1,a,a,True,772,5,15288,trainPhase
3,2,A0,a,a,True,588,5,15288,trainPhase
4,2,B1,b,b,True,889,5,15288,trainPhase
5,2,B0,b,b,True,596,5,15288,trainPhase
0,3,A0,a,a,True,633,5,15288,trainPhase
1,3,A1,a,a,True,992,5,15288,trainPhase
2,3,B2,b,b,True,1873,5,15288,trainPhase
3,3,A2,a,b,False,1499,5,15288,trainPhase
4,3,B0,b,b,True,1216,5,15288,trainPhase
5,3,B1,b,b,True,852,5,15288,trainPhase
0,4,B0,b,b,True,694,5,15288,trainPhase
1,4,A2,a,a,True,913,5,15288,trainPhase
2,4,A1,a,a,True,808,5,15288,trainPhase
3,4,A0,a,a,True,663,5,15288,trainPhase
4,4,B1,b,b,True,598,5,15288,trainPhase
5,4,B2,b,b,True,1285,5,15288,trainPhase
0,5,B0,b,b,True,663,5,15288,trainPhase
1,5,A0,a,a,True,733,5,15288,trainPhase
2,5,B1,b,b,True,680,5,15288,trainPhase
3,5,A2,a,b,False,1176,5,15288,trainPhase
4,5,A1,a,a,True,680,5,15288,trainPhase
5,5,B2,b,b,True,606,5,15288,trainPhase
0,6,B0,b,b,True,870,5,15288,trainPhase
1,6,B2,b,b,True,888,5,15288,trainPhase
2,6,A0,a,a,True,833,5,15288,trainPhase
3,6,B1,b,b,True,664,5,15288,trainPhase
4,6,A2,a,a,True,1044,5,15288,trainPhase
5,6,A1,a,a,True,1112,5,15288,trainPhase
0,7,B0,b,b,True,1847,5,15288,trainPhase
1,7,B1,b,b,True,792,5,15288,trainPhase
2,7,A0,a,a,True,885,5,15288,trainPhase
3,7,B2,b,b,True,567,5,15288,trainPhase
4,7,A2,a,a,True,1492,5,15288,trainPhase
5,7,A1,a,a,True,845,5,15288,trainPhase
0,8,B0,b,b,True,868,5,15288,trainPhase
1,8,A1,a,a,True,584,5,15288,trainPhase
0,0,B1,b,b,True,3345,5,15293,trainPhase
1,0,A2,a,b,False,1739,5,15293,trainPhase
2,0,A1,a,b,False,3426,5,15293,trainPhase
3,0,B0,b,b,True,3223,5,15293,trainPhase
4,0,A0,a,a,True,1340,5,15293,trainPhase
5,0,B2,b,b,True,2524,5,15293,trainPhase
0,1,A2,a,a,True,1796,5,15293,trainPhase
1,1,B0,b,b,True,1253,5,15293,trainPhase
2,1,B2,b,b,True,890,5,15293,trainPhase
3,1,A0,a,a,True,1069,5,15293,trainPhase
4,1,B1,b,b,True,888,5,15293,trainPhase
5,1,A1,a,a,True,885,5,15293,trainPhase
0,2,B1,b,b,True,888,5,15293,trainPhase
1,2,A0,a,a,True,1344,5,15293,trainPhase
2,2,B2,b,b,True,941,5,15293,trainPhase
3,2,A2,a,b,False,2168,5,15293,trainPhase
4,2,B0,b,b,True,2657,5,15293,trainPhase
5,2,A1,a,a,True,1531,5,15293,trainPhase
0,3,A1,a,a,True,1425,5,15293,trainPhase
1,3,B1,b,b,True,1064,5,15293,trainPhase
2,3,A2,a,a,True,1843,5,15293,trainPhase
3,3,B2,b,b,True,1076,5,15293,trainPhase
4,3,B0,b,b,True,1796,5,15293,trainPhase
5,3,A0,a,a,True,1089,5,15293,trainPhase
0,4,A0,a,a,True,1117,5,15293,trainPhase
1,4,B0,b,b,True,1076,5,15293,trainPhase
2,4,A2,a,a,True,2495,5,15293,trainPhase
3,4,B2,b,b,True,697,5,15293,trainPhase
4,4,B1,b,b,True,696,5,15293,trainPhase
5,4,A1,a,a,True,1560,5,15293,trainPhase
0,5,A2,a,a,True,2231,5,15293,trainPhase
1,5,A0,a,a,True,1006,5,15293,trainPhase
0,0,A0,a,b,False,1640,5,15298,trainPhase
1,0,A2,a,b,False,1500,5,15298,trainPhase
2,0,B1,b,a,False,1363,5,15298,trainPhase
3,0,B0,b,b,True,1224,5,15298,trainPhase
4,0,A1,a,b,False,933,5,15298,trainPhase
5,0,B2,b,a,False,3206,5,15298,trainPhase
0,1,B2,b,b,True,964,5,15298,trainPhase
1,1,A0,a,a,True,1187,5,15298,trainPhase
2,1,B0,b,a,False,2761,5,15298,trainPhase
3,1,A1,a,a,True,1044,5,15298,trainPhase
4,1,B1,b,b,True,911,5,15298,trainPhase
5,1,A2,a,a,True,933,5,15298,trainPhase
0,2,A0,a,a,True,911,5,15298,trainPhase
1,2,A1,a,b,False,1123,5,15298,trainPhase
2,2,B1,b,b,True,1261,5,15298,trainPhase
3,2,B0,b,b,True,790,5,15298,trainPhase
4,2,A2,a,a,True,866,5,15298,trainPhase
5,2,B2,b,a,False,1152,5,15298,trainPhase
0,3,B2,b,b,True,735,5,15298,trainPhase
1,3,A2,a,a,True,911,5,15298,trainPhase
2,3,B0,b,a,False,4688,5,15298,trainPhase
3,3,A0,a,a,True,845,5,15298,trainPhase
4,3,A1,a,a,True,2018,5,15298,trainPhase
5,3,B1,b,b,True,688,5,15298,trainPhase
0,4,B2,b,b,True,757,5,15298,trainPhase
1,4,A0,a,a,True,749,5,15298,trainPhase
2,4,B1,b,a,False,1767,5,15298,trainPhase
3,4,B0,b,a,False,1247,5,15298,trainPhase
4,4,A2,a,a,True,797,5,15298,trainPhase
5,4,A1,a,a,True,1121,5,15298,trainPhase
0,5,B2,b,b,True,573,5,15298,trainPhase
1,5,B1,b,b,True,493,5,15298,trainPhase
2,5,A1,a,a,True,854,5,15298,trainPhase
3,5,A0,a,a,True,690,5,15298,trainPhase
4,5,B0,b,b,True,1950,5,15298,trainPhase
5,5,A2,a,a,True,1021,5,15298,trainPhase
0,6,B2,b,b,True,885,5,15298,trainPhase
1,6,B1,b,b,True,790,5,15298,trainPhase
2,6,A0,a,a,True,714,5,15298,trainPhase
3,6,B0,b,b,True,854,5,15298,trainPhase
4,6,A1,a,b,False,862,5,15298,trainPhase
5,6,A2,a,a,True,742,5,15298,trainPhase
0,7,B2,b,b,True,747,5,15298,trainPhase
1,7,A0,a,a,True,717,5,15298,trainPhase
2,7,A2,a,a,True,832,5,15298,trainPhase
3,7,A1,a,a,True,1838,5,15298,trainPhase
4,7,B0,b,b,True,822,5,15298,trainPhase
5,7,B1,b,b,True,501,5,15298,trainPhase
0,8,B2,b,b,True,821,5,15298,trainPhase
1,8,A1,a,b,False,1773,5,15298,trainPhase
2,8,B0,b,b,True,913,5,15298,trainPhase
3,8,B1,b,b,True,502,5,15298,trainPhase
4,8,A2,a,a,True,741,5,15298,trainPhase
5,8,A0,a,a,True,735,5,15298,trainPhase
0,9,B0,b,b,True,819,5,15298,trainPhase
1,9,A2,a,a,True,816,5,15298,trainPhase
2,9,A1,a,a,True,662,5,15298,trainPhase
3,9,B2,b,b,True,761,5,15298,trainPhase
4,9,A0,a,a,True,686,5,15298,trainPhase
5,9,B1,b,b,True,1137,5,15298,trainPhase
0,10,B0,b,b,True,660,5,15298,trainPhase
1,10,B1,b,b,True,643,5,15298,trainPhase
2,10,B2,b,b,True,678,5,15298,trainPhase
3,10,A1,a,a,True,1090,5,15298,trainPhase
4,10,A0,a,a,True,579,5,15298,trainPhase
5,10,A2,a,a,True,695,5,15298,trainPhase
0,0,A1,a,a,True,6173,5,15303,trainPhase
1,0,A2,a,a,True,1873,5,15303,trainPhase
2,0,B1,b,a,False,1828,5,15303,trainPhase
3,0,B2,b,b,True,1803,5,15303,trainPhase
4,0,B0,b,b,True,2428,5,15303,trainPhase
5,0,A0,a,a,True,1585,5,15303,trainPhase
0,1,A1,a,b,False,3453,5,15303,trainPhase
1,1,B0,b,b,True,1027,5,15303,trainPhase
2,1,A0,a,a,True,1053,5,15303,trainPhase
3,1,A2,a,b,False,1183,5,15303,trainPhase
4,1,B2,b,b,True,2260,5,15303,trainPhase
5,1,B1,b,b,True,1498,5,15303,trainPhase
0,2,B1,b,b,True,1424,5,15303,trainPhase
1,2,A0,a,a,True,1556,5,15303,trainPhase
2,2,A2,a,b,False,3049,5,15303,trainPhase
3,2,B0,b,b,True,1780,5,15303,trainPhase
4,2,A1,a,a,True,1251,5,15303,trainPhase
5,2,B2,b,b,True,2673,5,15303,trainPhase
0,3,B1,b,b,True,1497,5,15303,trainPhase
1,3,A1,a,a,True,2570,5,15303,trainPhase
2,3,B0,b,b,True,4350,5,15303,trainPhase
3,3,B2,b,b,True,1325,5,15303,trainPhase
4,3,A0,a,a,True,1860,5,15303,trainPhase
5,3,A2,a,a,True,3105,5,15303,trainPhase
0,4,A0,a,a,True,1503,5,15303,trainPhase
1,4,B1,b,b,True,1112,5,15303,trainPhase
2,4,A1,a,a,True,1166,5,15303,trainPhase
3,4,B2,b,b,True,1836,5,15303,trainPhase
4,4,A2,a,a,True,1911,5,15303,trainPhase
5,4,B0,b,b,True,3560,5,15303,trainPhase
0,5,B1,b,b,True,1592,5,15303,trainPhase
0,0,B1,b,b,True,1320,5,15308,trainPhase
1,0,B2,b,b,True,1734,5,15308,trainPhase
2,0,A2,a,a,True,1278,5,15308,trainPhase
3,0,A0,a,a,True,1404,5,15308,trainPhase
4,0,A1,a,b,False,1083,5,15308,trainPhase
5,0,B0,b,b,True,854,5,15308,trainPhase
0,1,B2,b,b,True,1405,5,15308,trainPhase
1,1,A1,a,a,True,936,5,15308,trainPhase
2,1,B1,b,b,True,1467,5,15308,trainPhase
3,1,B0,b,a,False,1358,5,15308,trainPhase
4,1,A2,a,a,True,1344,5,15308,trainPhase
5,1,A0,a,a,True,1008,5,15308,trainPhase
0,2,A0,a,a,True,1005,5,15308,trainPhase
1,2,B0,b,b,True,1082,5,15308,trainPhase
2,2,A2,a,a,True,1601,5,15308,trainPhase
3,2,B1,b,b,True,954,5,15308,trainPhase
4,2,B2,b,b,True,882,5,15308,trainPhase
5,2,A1,a,a,True,1379,5,15308,trainPhase
0,3,B2,b,b,True,920,5,15308,trainPhase
1,3,B0,b,b,True,1814,5,15308,trainPhase
2,3,A0,a,a,True,999,5,15308,trainPhase
3,3,A1,a,a,True,1242,5,15308,trainPhase
4,3,A2,a,a,True,1938,5,15308,trainPhase
5,3,B1,b,b,True,841,5,15308,trainPhase
0,4,A2,a,a,True,922,5,15308,trainPhase
1,4,B1,b,b,True,1535,5,15308,trainPhase
0,0,B2,b,a,False,4100,5,15480,trainPhase
1,0,A0,a,b,False,1550,5,15480,trainPhase
2,0,B1,b,b,True,1567,5,15480,trainPhase
3,0,A2,a,a,True,1613,5,15480,trainPhase
4,0,B0,b,a,False,1244,5,15480,trainPhase
5,0,A1,a,a,True,1439,5,15480,trainPhase
0,1,B0,b,b,True,823,5,15480,trainPhase
1,1,A1,a,a,True,880,5,15480,trainPhase
2,1,A0,a,a,True,998,5,15480,trainPhase
3,1,A2,a,a,True,1303,5,15480,trainPhase
4,1,B1,b,b,True,1015,5,15480,trainPhase
5,1,B2,b,b,True,870,5,15480,trainPhase
0,2,B2,b,b,True,801,5,15480,trainPhase
1,2,A0,a,a,True,860,5,15480,trainPhase
2,2,A2,a,a,True,735,5,15480,trainPhase
3,2,B0,b,a,False,2662,5,15480,trainPhase
4,2,B1,b,b,True,574,5,15480,trainPhase
5,2,A1,a,a,True,727,5,15480,trainPhase
0,3,A0,a,a,True,859,5,15480,trainPhase
1,3,B1,b,b,True,1172,5,15480,trainPhase
2,3,B2,b,b,True,733,5,15480,trainPhase
3,3,A2,a,a,True,1124,5,15480,trainPhase
4,3,A1,a,a,True,827,5,15480,trainPhase
5,3,B0,b,b,True,884,5,15480,trainPhase
0,4,B1,b,b,True,1406,5,15480,trainPhase
1,4,A1,a,a,True,1356,5,15480,trainPhase
2,4,B0,b,b,True,1365,5,15480,trainPhase
3,4,A2,a,b,False,1947,5,15480,trainPhase
4,4,A0,a,a,True,617,5,15480,trainPhase
5,4,B2,b,b,True,1095,5,15480,trainPhase
0,5,B1,b,b,True,1968,5,15480,trainPhase
1,5,B0,b,b,True,931,5,15480,trainPhase
2,5,A0,a,a,True,903,5,15480,trainPhase
3,5,B2,b,b,True,1637,5,15480,trainPhase
4,5,A2,a,a,True,3575,5,15480,trainPhase
5,5,A1,a,a,True,1288,5,15480,trainPhase
0,6,B2,b,b,True,1213,5,15480,trainPhase
1,6,B1,b,b,True,861,5,15480,trainPhase
2,6,A0,a,a,True,755,5,15480,trainPhase
3,6,B0,b,b,True,1910,5,15480,trainPhase
4,6,A2,a,a,True,1146,5,15480,trainPhase
5,6,A1,a,b,False,4562,5,15480,trainPhase
0,7,B1,b,b,True,865,5,15480,trainPhase
1,7,B0,b,b,True,1225,5,15480,trainPhase
2,7,A2,a,a,True,787,5,15480,trainPhase
3,7,B2,b,b,True,1066,5,15480,trainPhase
4,7,A1,a,a,True,2798,5,15480,trainPhase
5,7,A0,a,a,True,826,5,15480,trainPhase
0,8,B2,b,b,True,760,5,15480,trainPhase
1,8,B0,b,b,True,971,5,15480,trainPhase
2,8,A2,a,a,True,1144,5,15480,trainPhase
3,8,A0,a,a,True,785,5,15480,trainPhase
4,8,B1,b,b,True,925,5,15480,trainPhase
5,8,A1,a,a,True,834,5,15480,trainPhase
0,9,B1,b,b,True,712,5,15480,trainPhase
1,9,B0,b,b,True,2134,5,15480,trainPhase
2,9,A1,a,a,True,1180,5,15480,trainPhase
3,9,A0,a,a,True,885,5,15480,trainPhase
0,0,B2,b,b,True,2023,5,15483,trainPhase
1,0,B1,b,b,True,1556,5,15483,trainPhase
2,0,A2,a,a,True,1165,5,15483,trainPhase
3,0,A0,a,b,False,1311,5,15483,trainPhase
4,0,A1,a,a,True,108,5,15483,trainPhase
5,0,B0,b,a,False,1081,5,15483,trainPhase
0,1,B1,b,b,True,1325,5,15483,trainPhase
1,1,A2,a,a,True,1021,5,15483,trainPhase
2,1,B0,b,b,True,1325,5,15483,trainPhase
3,1,A0,a,a,True,942,5,15483,trainPhase
4,1,B2,b,b,True,541,5,15483,trainPhase
5,1,A1,a,b,False,1245,5,15483,trainPhase
0,2,A2,a,a,True,2570,5,15483,trainPhase
1,2,B1,b,b,True,799,5,15483,trainPhase
2,2,A1,a,b,False,2464,5,15483,trainPhase
3,2,B0,b,b,True,1438,5,15483,trainPhase
4,2,B2,b,b,True,1165,5,15483,trainPhase
5,2,A0,a,a,True,1197,5,15483,trainPhase
0,3,A2,a,a,True,1607,5,15483,trainPhase
1,3,A1,a,a,True,737,5,15483,trainPhase
2,3,B2,b,b,True,869,5,15483,trainPhase
3,3,A0,a,a,True,856,5,15483,trainPhase
4,3,B0,b,b,True,2821,5,15483,trainPhase
5,3,B1,b,b,True,1553,5,15483,trainPhase
0,4,A2,a,a,True,859,5,15483,trainPhase
1,4,A0,a,a,True,856,5,15483,trainPhase
2,4,B2,b,b,True,827,5,15483,trainPhase
3,4,A1,a,b,False,926,5,15483,trainPhase
4,4,B1,b,b,True,1838,5,15483,trainPhase
5,4,B0,b,b,True,1590,5,15483,trainPhase
0,5,B1,b,b,True,1037,5,15483,trainPhase
1,5,A0,a,a,True,1108,5,15483,trainPhase
2,5,A1,a,a,True,1309,5,15483,trainPhase
3,5,B0,b,b,True,842,5,15483,trainPhase
4,5,A2,a,a,True,1727,5,15483,trainPhase
5,5,B2,b,b,True,808,5,15483,trainPhase
0,6,A2,a,a,True,2008,5,15483,trainPhase
1,6,A1,a,b,False,1105,5,15483,trainPhase
2,6,A0,a,a,True,1126,5,15483,trainPhase
3,6,B2,b,b,True,840,5,15483,trainPhase
4,6,B0,b,b,True,2144,5,15483,trainPhase
5,6,B1,b,b,True,1853,5,15483,trainPhase
0,7,B2,b,b,True,1173,5,15483,trainPhase
1,7,A1,a,a,True,1086,5,15483,trainPhase
2,7,A0,a,a,True,862,5,15483,trainPhase
3,7,B1,b,b,True,1380,5,15483,trainPhase
4,7,A2,a,a,True,1471,5,15483,trainPhase
5,7,B0,b,b,True,826,5,15483,trainPhase
0,8,B1,b,b,True,1013,5,15483,trainPhase
1,8,B0,b,b,True,645,5,15483,trainPhase
2,8,B2,b,b,True,854,5,15483,trainPhase
3,8,A0,a,a,True,782,5,15483,trainPhase
4,8,A1,a,a,True,2544,5,15483,trainPhase
5,8,A2,a,a,True,1444,5,15483,trainPhase
0,0,B1,b,b,True,2189,5,15486,trainPhase
1,0,B0,b,b,True,1757,5,15486,trainPhase
2,0,A2,a,b,False,1507,5,15486,trainPhase
3,0,A1,a,b,False,1612,5,15486,trainPhase
4,0,A0,a,a,True,935,5,15486,trainPhase
5,0,B2,b,b,True,1110,5,15486,trainPhase
0,1,A2,a,a,True,1150,5,15486,trainPhase
1,1,B0,b,b,True,1144,5,15486,trainPhase
2,1,B2,b,b,True,880,5,15486,trainPhase
3,1,B1,b,b,True,962,5,15486,trainPhase
4,1,A0,a,a,True,762,5,15486,trainPhase
5,1,A1,a,a,True,719,5,15486,trainPhase
0,2,A2,a,b,False,1718,5,15486,trainPhase
1,2,B2,b,b,True,837,5,15486,trainPhase
2,2,A1,a,a,True,717,5,15486,trainPhase
3,2,A0,a,a,True,726,5,15486,trainPhase
4,2,B0,b,b,True,815,5,15486,trainPhase
5,2,B1,b,b,True,749,5,15486,trainPhase
0,3,B1,b,b,True,712,5,15486,trainPhase
1,3,B2,b,b,True,572,5,15486,trainPhase
2,3,A0,a,a,True,681,5,15486,trainPhase
3,3,B0,b,b,True,1128,5,15486,trainPhase
4,3,A1,a,a,True,881,5,15486,trainPhase
5,3,A2,a,a,True,1111,5,15486,trainPhase
0,4,A1,a,a,True,1238,5,15486,trainPhase
1,4,A2,a,a,True,928,5,15486,trainPhase
2,4,B1,b,b,True,1613,5,15486,trainPhase
3,4,B2,b,b,True,759,5,15486,trainPhase
4,4,B0,b,b,True,1589,5,15486,trainPhase
0,0,B1,b,a,False,2368,5,15489,trainPhase
1,0,B0,b,b,True,2523,5,15489,trainPhase
2,0,A2,a,a,True,1618,5,15489,trainPhase
3,0,A1,a,b,False,965,5,15489,trainPhase
4,0,B2,b,b,True,1485,5,15489,trainPhase
5,0,A0,a,a,True,1341,5,15489,trainPhase
0,1,B0,b,b,True,1005,5,15489,trainPhase
1,1,B1,b,b,True,1358,5,15489,trainPhase
2,1,A2,a,a,True,1007,5,15489,trainPhase
3,1,A1,a,a,True,1114,5,15489,trainPhase
4,1,B2,b,b,True,944,5,15489,trainPhase
5,1,A0,a,a,True,1163,5,15489,trainPhase
0,2,B1,b,b,True,1323,5,15489,trainPhase
1,2,B2,b,b,True,909,5,15489,trainPhase
2,2,A2,a,a,True,958,5,15489,trainPhase
3,2,A1,a,a,True,1118,5,15489,trainPhase
4,2,B0,b,b,True,1337,5,15489,trainPhase
5,2,A0,a,a,True,1032,5,15489,trainPhase
0,3,A1,a,b,False,1901,5,15489,trainPhase
1,3,B1,b,b,True,956,5,15489,trainPhase
2,3,A2,a,b,False,1608,5,15489,trainPhase
3,3,B0,b,b,True,3318,5,15489,trainPhase
4,3,A0,a,a,True,718,5,15489,trainPhase
5,3,B2,b,b,True,836,5,15489,trainPhase
0,4,B2,b,b,True,1076,5,15489,trainPhase
1,4,B1,b,b,True,849,5,15489,trainPhase
2,4,A1,a,a,True,895,5,15489,trainPhase
3,4,A2,a,a,True,1354,5,15489,trainPhase
4,4,B0,b,a,False,1120,5,15489,trainPhase
5,4,A0,a,a,True,1042,5,15489,trainPhase
0,5,B0,b,b,True,2790,5,15489,trainPhase
1,5,A2,a,a,True,1453,5,15489,trainPhase
2,5,B2,b,b,True,1014,5,15489,trainPhase
3,5,B1,b,b,True,863,5,15489,trainPhase
4,5,A0,a,a,True,1087,5,15489,trainPhase
5,5,A1,a,a,True,1039,5,15489,trainPhase
0,6,A1,a,a,True,868,5,15489,trainPhase
1,6,B1,b,b,True,1012,5,15489,trainPhase
2,6,A2,a,a,True,934,5,15489,trainPhase
3,6,B0,b,b,True,1878,5,15489,trainPhase
4,6,A0,a,a,True,814,5,15489,trainPhase
5,6,B2,b,b,True,838,5,15489,trainPhase
0,7,B1,b,b,True,739,5,15489,trainPhase
1,7,B2,b,b,True,733,5,15489,trainPhase
2,7,B0,b,b,True,1745,5,15489,trainPhase
0,0,A1,a,a,True,3074,5,15492,trainPhase
1,0,A2,a,a,True,1363,5,15492,trainPhase
2,0,B2,b,a,False,1006,5,15492,trainPhase
3,0,B1,b,b,True,1161,5,15492,trainPhase
4,0,B0,b,b,True,1828,5,15492,trainPhase
5,0,A0,a,a,True,1286,5,15492,trainPhase
0,1,B2,b,b,True,1026,5,15492,trainPhase
1,1,B1,b,b,True,1471,5,15492,trainPhase
2,1,B0,b,b,True,1006,5,15492,trainPhase
3,1,A0,a,a,True,1120,5,15492,trainPhase
4,1,A1,a,b,False,1115,5,15492,trainPhase
5,1,A2,a,a,True,2246,5,15492,trainPhase
0,2,B1,b,b,True,2118,5,15492,trainPhase
1,2,B2,b,b,True,1318,5,15492,trainPhase
2,2,A0,a,a,True,1136,5,15492,trainPhase
3,2,A1,a,a,True,902,5,15492,trainPhase
4,2,B0,b,b,True,1135,5,15492,trainPhase
5,2,A2,a,b,False,2589,5,15492,trainPhase
0,3,A2,a,a,True,1010,5,15492,trainPhase
1,3,B0,b,b,True,1451,5,15492,trainPhase
2,3,B2,b,b,True,1481,5,15492,trainPhase
3,3,B1,b,b,True,1069,5,15492,trainPhase
4,3,A1,a,a,True,1652,5,15492,trainPhase
5,3,A0,a,a,True,837,5,15492,trainPhase
0,4,A0,a,a,True,837,5,15492,trainPhase
1,4,B1,b,b,True,1118,5,15492,trainPhase
2,4,B2,b,b,True,920,5,15492,trainPhase
3,4,A1,a,a,True,1154,5,15492,trainPhase
4,4,B0,b,b,True,1652,5,15492,trainPhase
5,4,A2,a,a,True,1028,5,15492,trainPhase
0,5,B1,b,b,True,937,5,15492,trainPhase
1,5,A2,a,a,True,1293,5,15492,trainPhase
2,5,B0,b,b,True,1501,5,15492,trainPhase
3,5,B2,b,b,True,744,5,15492,trainPhase
0,0,B0,b,b,True,3152,5,15507,trainPhase
1,0,A1,a,b,False,1428,5,15507,trainPhase
2,0,A2,a,a,True,2436,5,15507,trainPhase
3,0,B1,b,b,True,1411,5,15507,trainPhase
4,0,B2,b,b,True,1138,5,15507,trainPhase
5,0,A0,a,b,False,1968,5,15507,trainPhase
0,1,B1,b,b,True,1353,5,15507,trainPhase
1,1,B2,b,b,True,813,5,15507,trainPhase
2,1,A0,a,a,True,832,5,15507,trainPhase
3,1,A1,a,a,True,1933,5,15507,trainPhase
4,1,B0,b,b,True,847,5,15507,trainPhase
5,1,A2,a,a,True,2005,5,15507,trainPhase
0,2,B0,b,b,True,1035,5,15507,trainPhase
1,2,B1,b,b,True,1411,5,15507,trainPhase
2,2,A1,a,a,True,908,5,15507,trainPhase
3,2,A2,a,a,True,831,5,15507,trainPhase
4,2,B2,b,b,True,900,5,15507,trainPhase
5,2,A0,a,a,True,1014,5,15507,trainPhase
0,3,A2,a,a,True,1294,5,15507,trainPhase
1,3,B0,b,b,True,1127,5,15507,trainPhase
2,3,B2,b,b,True,798,5,15507,trainPhase
3,3,A1,a,a,True,894,5,15507,trainPhase
0,0,A1,a,a,True,4904,5,15523,trainPhase
1,0,A2,a,a,True,2566,5,15523,trainPhase
2,0,B2,b,b,True,1235,5,15523,trainPhase
3,0,A0,a,b,False,3188,5,15523,trainPhase
4,0,B0,b,b,True,17835,5,15523,trainPhase
5,0,B1,b,a,False,22762,5,15523,trainPhase
0,1,A2,a,a,True,2696,5,15523,trainPhase
1,1,A0,a,a,True,1652,5,15523,trainPhase
2,1,B0,b,b,True,2557,5,15523,trainPhase
3,1,B1,b,b,True,1044,5,15523,trainPhase
4,1,A1,a,b,False,949,5,15523,trainPhase
5,1,B2,b,b,True,964,5,15523,trainPhase
0,2,A2,a,a,True,1113,5,15523,trainPhase
1,2,B0,b,b,True,1033,5,15523,trainPhase
2,2,B1,b,b,True,1330,5,15523,trainPhase
3,2,B2,b,b,True,1205,5,15523,trainPhase
4,2,A1,a,b,False,1168,5,15523,trainPhase
5,2,A0,a,a,True,1041,5,15523,trainPhase
0,3,B0,b,b,True,939,5,15523,trainPhase
1,3,A2,a,a,True,893,5,15523,trainPhase
2,3,B1,b,b,True,721,5,15523,trainPhase
3,3,A1,a,b,False,1063,5,15523,trainPhase
4,3,A0,a,a,True,2033,5,15523,trainPhase
5,3,B2,b,b,True,1088,5,15523,trainPhase
0,4,A2,a,a,True,1284,5,15523,trainPhase
1,4,B2,b,b,True,1602,5,15523,trainPhase
2,4,A0,a,a,True,1142,5,15523,trainPhase
3,4,A1,a,b,False,1622,5,15523,trainPhase
4,4,B1,b,a,False,1920,5,15523,trainPhase
5,4,B0,b,b,True,1486,5,15523,trainPhase
0,5,B1,b,b,True,1221,5,15523,trainPhase
1,5,B0,b,a,False,1238,5,15523,trainPhase
2,5,B2,b,b,True,957,5,15523,trainPhase
3,5,A0,a,a,True,981,5,15523,trainPhase
4,5,A2,a,a,True,941,5,15523,trainPhase
5,5,A1,a,a,True,1459,5,15523,trainPhase
0,6,B0,b,b,True,1073,5,15523,trainPhase
1,6,B2,b,b,True,802,5,15523,trainPhase
2,6,B1,b,b,True,824,5,15523,trainPhase
3,6,A1,a,a,True,1998,5,15523,trainPhase
4,6,A2,a,a,True,1135,5,15523,trainPhase
5,6,A0,a,a,True,1148,5,15523,trainPhase
0,7,B1,b,b,True,1102,5,15523,trainPhase
1,7,A1,a,a,True,974,5,15523,trainPhase
2,7,A2,a,a,True,1207,5,15523,trainPhase
3,7,A0,a,a,True,919,5,15523,trainPhase
4,7,B0,b,b,True,1400,5,15523,trainPhase
5,7,B2,b,b,True,922,5,15523,trainPhase
0,0,B0,b,a,False,2640,5,15526,trainPhase
1,0,B2,b,b,True,1152,5,15526,trainPhase
2,0,A0,a,b,False,1880,5,15526,trainPhase
3,0,B1,b,b,True,1662,5,15526,trainPhase
4,0,A2,a,a,True,949,5,15526,trainPhase
5,0,A1,a,b,False,2609,5,15526,trainPhase
0,1,B2,b,b,True,1423,5,15526,trainPhase
1,1,A1,a,a,True,930,5,15526,trainPhase
2,1,B1,b,b,True,1238,5,15526,trainPhase
3,1,A0,a,a,True,1265,5,15526,trainPhase
4,1,B0,b,b,True,1800,5,15526,trainPhase
5,1,A2,a,b,False,1454,5,15526,trainPhase
0,2,A2,a,a,True,1078,5,15526,trainPhase
1,2,B0,b,b,True,926,5,15526,trainPhase
2,2,B1,b,b,True,1059,5,15526,trainPhase
3,2,A1,a,a,True,810,5,15526,trainPhase
4,2,A0,a,a,True,947,5,15526,trainPhase
5,2,B2,b,b,True,978,5,15526,trainPhase
0,3,A0,a,a,True,738,5,15526,trainPhase
1,3,B2,b,b,True,1303,5,15526,trainPhase
2,3,B1,b,b,True,1531,5,15526,trainPhase
3,3,A2,a,a,True,1139,5,15526,trainPhase
4,3,B0,b,b,True,1262,5,15526,trainPhase
5,3,A1,a,a,True,977,5,15526,trainPhase
0,4,A1,a,a,True,1452,5,15526,trainPhase
1,4,B0,b,b,True,903,5,15526,trainPhase
2,4,B1,b,b,True,1245,5,15526,trainPhase
3,4,A2,a,a,True,766,5,15526,trainPhase
0,0,A0,a,a,True,4010,5,15529,trainPhase
1,0,B1,b,a,False,2450,5,15529,trainPhase
2,0,B2,b,b,True,1624,5,15529,trainPhase
3,0,A1,a,b,False,1535,5,15529,trainPhase
4,0,B0,b,b,True,2401,5,15529,trainPhase
5,0,A2,a,b,False,1684,5,15529,trainPhase
0,1,A1,a,a,True,1822,5,15529,trainPhase
1,1,B1,b,b,True,1142,5,15529,trainPhase
2,1,A2,a,a,True,1968,5,15529,trainPhase
3,1,B2,b,b,True,3935,5,15529,trainPhase
4,1,B0,b,b,True,4294,5,15529,trainPhase
5,1,A0,a,a,True,1692,5,15529,trainPhase
0,2,A2,a,b,False,2534,5,15529,trainPhase
1,2,A1,a,a,True,3614,5,15529,trainPhase
2,2,B0,b,b,True,543,5,15529,trainPhase
3,2,B1,b,b,True,2382,5,15529,trainPhase
4,2,B2,b,b,True,1721,5,15529,trainPhase
5,2,A0,a,a,True,956,5,15529,trainPhase
0,3,A0,a,a,True,1415,5,15529,trainPhase
1,3,A1,a,b,False,4068,5,15529,trainPhase
2,3,B0,b,b,True,3364,5,15529,trainPhase
3,3,B2,b,a,False,1743,5,15529,trainPhase
4,3,B1,b,b,True,900,5,15529,trainPhase
5,3,A2,a,a,True,5322,5,15529,trainPhase
0,4,A2,a,a,True,1104,5,15529,trainPhase
1,4,B0,b,b,True,1459,5,15529,trainPhase
2,4,A1,a,a,True,3267,5,15529,trainPhase
3,4,A0,a,b,False,2301,5,15529,trainPhase
4,4,B2,b,b,True,1041,5,15529,trainPhase
5,4,B1,b,b,True,1053,5,15529,trainPhase
0,5,B1,b,b,True,1141,5,15529,trainPhase
1,5,B2,b,b,True,1605,5,15529,trainPhase
2,5,A2,a,a,True,3433,5,15529,trainPhase
3,5,A1,a,a,True,2218,5,15529,trainPhase
4,5,B0,b,b,True,1585,5,15529,trainPhase
5,5,A0,a,a,True,1818,5,15529,trainPhase
0,6,B0,b,b,True,2059,5,15529,trainPhase
1,6,A2,a,a,True,1431,5,15529,trainPhase
2,6,A0,a,a,True,1260,5,15529,trainPhase
3,6,B2,b,b,True,1108,5,15529,trainPhase
4,6,A1,a,a,True,6424,5,15529,trainPhase
5,6,B1,b,b,True,2199,5,15529,trainPhase
0,7,B0,b,b,True,2594,5,15529,trainPhase
1,7,B2,b,b,True,1058,5,15529,trainPhase
0,0,B2,b,a,False,3397,5,15531,trainPhase
1,0,A2,a,a,True,2049,5,15531,trainPhase
2,0,B0,b,a,False,2444,5,15531,trainPhase
3,0,B1,b,b,True,1957,5,15531,trainPhase
4,0,A0,a,a,True,935,5,15531,trainPhase
5,0,A1,a,a,True,1417,5,15531,trainPhase
0,1,A1,a,a,True,1528,5,15531,trainPhase
1,1,B2,b,b,True,1084,5,15531,trainPhase
2,1,B0,b,a,False,1106,5,15531,trainPhase
3,1,A0,a,a,True,852,5,15531,trainPhase
4,1,A2,a,b,False,1243,5,15531,trainPhase
5,1,B1,b,b,True,1063,5,15531,trainPhase
0,2,B0,b,b,True,1117,5,15531,trainPhase
1,2,A1,a,a,True,838,5,15531,trainPhase
2,2,B1,b,b,True,878,5,15531,trainPhase
3,2,A0,a,a,True,928,5,15531,trainPhase
4,2,A2,a,a,True,2308,5,15531,trainPhase
5,2,B2,b,b,True,862,5,15531,trainPhase
0,3,A2,a,a,True,805,5,15531,trainPhase
1,3,B0,b,b,True,1102,5,15531,trainPhase
2,3,B1,b,b,True,816,5,15531,trainPhase
3,3,A1,a,a,True,918,5,15531,trainPhase
4,3,B2,b,b,True,766,5,15531,trainPhase
5,3,A0,a,a,True,774,5,15531,trainPhase
0,4,B1,b,b,True,845,5,15531,trainPhase
1,4,A0,a,a,True,749,5,15531,trainPhase
2,4,B0,b,b,True,806,5,15531,trainPhase
0,0,A0,a,b,False,2141,5,15535,trainPhase
1,0,B1,b,a,False,3404,5,15535,trainPhase
2,0,B0,b,b,True,2882,5,15535,trainPhase
3,0,A2,a,a,True,1149,5,15535,trainPhase
4,0,A1,a,b,False,942,5,15535,trainPhase
5,0,B2,b,b,True,1407,5,15535,trainPhase
0,1,B2,b,b,True,725,5,15535,trainPhase
1,1,B0,b,b,True,4128,5,15535,trainPhase
2,1,A0,a,a,True,807,5,15535,trainPhase
3,1,A2,a,b,False,1801,5,15535,trainPhase
4,1,A1,a,a,True,968,5,15535,trainPhase
5,1,B1,b,b,True,767,5,15535,trainPhase
0,2,A1,a,a,True,1382,5,15535,trainPhase
1,2,B0,b,b,True,1098,5,15535,trainPhase
2,2,B2,b,b,True,1014,5,15535,trainPhase
3,2,A2,a,b,False,1623,5,15535,trainPhase
4,2,A0,a,a,True,1010,5,15535,trainPhase
5,2,B1,b,b,True,878,5,15535,trainPhase
0,3,B0,b,b,True,997,5,15535,trainPhase
1,3,A2,a,b,False,2569,5,15535,trainPhase
2,3,B1,b,b,True,1242,5,15535,trainPhase
3,3,B2,b,b,True,725,5,15535,trainPhase
4,3,A0,a,a,True,894,5,15535,trainPhase
5,3,A1,a,a,True,1070,5,15535,trainPhase
0,4,B1,b,b,True,895,5,15535,trainPhase
1,4,A2,a,a,True,1647,5,15535,trainPhase
2,4,B2,b,b,True,665,5,15535,trainPhase
3,4,A0,a,a,True,1006,5,15535,trainPhase
4,4,A1,a,a,True,900,5,15535,trainPhase
5,4,B0,b,b,True,577,5,15535,trainPhase
0,5,A1,a,a,True,904,5,15535,trainPhase
1,5,B2,b,b,True,822,5,15535,trainPhase
2,5,B0,b,b,True,1312,5,15535,trainPhase
3,5,A0,a,a,True,729,5,15535,trainPhase
4,5,B1,b,b,True,1082,5,15535,trainPhase
5,5,A2,a,a,True,1768,5,15535,trainPhase
0,0,A1,a,a,True,1604,5,15545,trainPhase
1,0,A0,a,a,True,986,5,15545,trainPhase
2,0,B1,b,a,False,981,5,15545,trainPhase
3,0,A2,a,a,True,849,5,15545,trainPhase
4,0,B0,b,b,True,583,5,15545,trainPhase
5,0,B2,b,b,True,792,5,15545,trainPhase
0,1,A2,a,a,True,1045,5,15545,trainPhase
1,1,B1,b,b,True,705,5,15545,trainPhase
2,1,B2,b,b,True,957,5,15545,trainPhase
3,1,B0,b,a,False,656,5,15545,trainPhase
4,1,A0,a,a,True,641,5,15545,trainPhase
5,1,A1,a,a,True,1085,5,15545,trainPhase
0,2,B0,b,b,True,610,5,15545,trainPhase
1,2,A1,a,a,True,710,5,15545,trainPhase
2,2,B2,b,b,True,606,5,15545,trainPhase
3,2,B1,b,b,True,981,5,15545,trainPhase
4,2,A2,a,a,True,926,5,15545,trainPhase
5,2,A0,a,a,True,749,5,15545,trainPhase
0,3,A2,a,b,False,1360,5,15545,trainPhase
1,3,A1,a,a,True,597,5,15545,trainPhase
2,3,A0,a,a,True,672,5,15545,trainPhase
3,3,B1,b,b,True,745,5,15545,trainPhase
4,3,B0,b,b,True,1139,5,15545,trainPhase
5,3,B2,b,a,False,616,5,15545,trainPhase
0,4,B2,b,b,True,806,5,15545,trainPhase
1,4,A2,a,b,False,1426,5,15545,trainPhase
2,4,B0,b,a,False,987,5,15545,trainPhase
3,4,A1,a,a,True,965,5,15545,trainPhase
4,4,B1,b,b,True,969,5,15545,trainPhase
5,4,A0,a,a,True,702,5,15545,trainPhase
0,5,A0,a,a,True,1008,5,15545,trainPhase
1,5,B2,b,b,True,857,5,15545,trainPhase
2,5,A2,a,a,True,2145,5,15545,trainPhase
3,5,B0,b,a,False,1014,5,15545,trainPhase
4,5,A1,a,a,True,757,5,15545,trainPhase
5,5,B1,b,b,True,593,5,15545,trainPhase
0,6,A2,a,b,False,1216,5,15545,trainPhase
1,6,B1,b,a,False,729,5,15545,trainPhase
2,6,B2,b,b,True,697,5,15545,trainPhase
3,6,A0,a,a,True,561,5,15545,trainPhase
4,6,B0,b,b,True,768,5,15545,trainPhase
5,6,A1,a,a,True,475,5,15545,trainPhase
0,7,B0,b,b,True,749,5,15545,trainPhase
1,7,A2,a,b,False,892,5,15545,trainPhase
2,7,A1,a,a,True,703,5,15545,trainPhase
3,7,A0,a,a,True,717,5,15545,trainPhase
4,7,B1,b,b,True,663,5,15545,trainPhase
5,7,B2,b,b,True,575,5,15545,trainPhase
0,8,B0,b,b,True,1081,5,15545,trainPhase
1,8,B2,b,b,True,639,5,15545,trainPhase
2,8,B1,b,b,True,617,5,15545,trainPhase
3,8,A2,a,b,False,657,5,15545,trainPhase
4,8,A0,a,a,True,535,5,15545,trainPhase
5,8,A1,a,a,True,788,5,15545,trainPhase
0,9,A1,a,a,True,557,5,15545,trainPhase
1,9,A0,a,a,True,537,5,15545,trainPhase
2,9,B0,b,b,True,1031,5,15545,trainPhase
3,9,B2,b,b,True,590,5,15545,trainPhase
4,9,A2,a,a,True,1661,5,15545,trainPhase
5,9,B1,b,b,True,911,5,15545,trainPhase
0,10,A2,a,a,True,1249,5,15545,trainPhase
1,10,A1,a,a,True,941,5,15545,trainPhase
2,10,B2,b,b,True,542,5,15545,trainPhase
3,10,B1,b,b,True,511,5,15545,trainPhase
4,10,B0,b,b,True,454,5,15545,trainPhase
5,10,A0,a,a,True,496,5,15545,trainPhase
0,11,A2,a,a,True,1033,5,15545,trainPhase
1,11,B0,b,b,True,1091,5,15545,trainPhase
0,0,B2,b,a,False,2963,5,15548,trainPhase
1,0,A1,a,a,True,2324,5,15548,trainPhase
2,0,B0,b,a,False,1340,5,15548,trainPhase
3,0,B1,b,b,True,1301,5,15548,trainPhase
4,0,A2,a,b,False,2377,5,15548,trainPhase
5,0,A0,a,a,True,949,5,15548,trainPhase
0,1,A2,a,a,True,1193,5,15548,trainPhase
1,1,B0,b,b,True,1566,5,15548,trainPhase
2,1,A0,a,a,True,728,5,15548,trainPhase
3,1,B1,b,b,True,1198,5,15548,trainPhase
4,1,B2,b,b,True,1119,5,15548,trainPhase
5,1,A1,a,a,True,1715,5,15548,trainPhase
0,2,A0,a,a,True,923,5,15548,trainPhase
1,2,A1,a,a,True,1110,5,15548,trainPhase
2,2,B1,b,b,True,766,5,15548,trainPhase
3,2,B0,b,b,True,820,5,15548,trainPhase
4,2,B2,b,b,True,422,5,15548,trainPhase
5,2,A2,a,b,False,1786,5,15548,trainPhase
0,3,A2,a,a,True,1369,5,15548,trainPhase
1,3,B0,b,b,True,1372,5,15548,trainPhase
2,3,B2,b,b,True,1038,5,15548,trainPhase
3,3,A0,a,a,True,702,5,15548,trainPhase
4,3,A1,a,a,True,1301,5,15548,trainPhase
5,3,B1,b,b,True,1094,5,15548,trainPhase
0,4,A1,a,a,True,1935,5,15548,trainPhase
1,4,B0,b,b,True,737,5,15548,trainPhase
2,4,B1,b,b,True,594,5,15548,trainPhase
3,4,B2,b,b,True,483,5,15548,trainPhase
4,4,A0,a,a,True,824,5,15548,trainPhase
5,4,A2,a,b,False,1208,5,15548,trainPhase
0,5,A1,a,a,True,768,5,15548,trainPhase
1,5,A2,a,a,True,727,5,15548,trainPhase
2,5,B1,b,b,True,896,5,15548,trainPhase
3,5,B2,b,b,True,879,5,15548,trainPhase
4,5,A0,a,a,True,743,5,15548,trainPhase
5,5,B0,b,b,True,1374,5,15548,trainPhase
0,6,B2,b,b,True,713,5,15548,trainPhase
1,6,A0,a,a,True,830,5,15548,trainPhase
2,6,B0,b,b,True,1038,5,15548,trainPhase
3,6,A2,a,b,False,913,5,15548,trainPhase
4,6,A1,a,a,True,785,5,15548,trainPhase
5,6,B1,b,b,True,916,5,15548,trainPhase
0,7,B1,b,b,True,863,5,15548,trainPhase
1,7,A1,a,a,True,736,5,15548,trainPhase
2,7,B2,b,b,True,621,5,15548,trainPhase
3,7,A0,a,a,True,634,5,15548,trainPhase
4,7,B0,b,a,False,1590,5,15548,trainPhase
5,7,A2,a,b,False,632,5,15548,trainPhase
0,8,A1,a,a,True,638,5,15548,trainPhase
1,8,B0,b,b,True,1100,5,15548,trainPhase
2,8,A0,a,a,True,659,5,15548,trainPhase
3,8,B1,b,b,True,1181,5,15548,trainPhase
4,8,B2,b,b,True,560,5,15548,trainPhase
5,8,A2,a,a,True,2491,5,15548,trainPhase
0,9,A1,a,a,True,775,5,15548,trainPhase
1,9,A0,a,a,True,632,5,15548,trainPhase
2,9,B2,b,b,True,1144,5,15548,trainPhase
3,9,A2,a,a,True,1350,5,15548,trainPhase
4,9,B1,b,b,True,655,5,15548,trainPhase
5,9,B0,b,b,True,1158,5,15548,trainPhase
0,10,B0,b,b,True,518,5,15548,trainPhase
1,10,A2,a,a,True,903,5,15548,trainPhase
2,10,B2,b,b,True,560,5,15548,trainPhase
3,10,B1,b,b,True,581,5,15548,trainPhase
0,0,B1,b,b,True,3711,5,15551,trainPhase
1,0,A2,a,b,False,1812,5,15551,trainPhase
2,0,B0,b,b,True,1233,5,15551,trainPhase
3,0,A0,a,a,True,751,5,15551,trainPhase
4,0,A1,a,b,False,1298,5,15551,trainPhase
5,0,B2,b,a,False,2282,5,15551,trainPhase
0,1,A0,a,a,True,2025,5,15551,trainPhase
1,1,A2,a,b,False,984,5,15551,trainPhase
2,1,B0,b,b,True,1041,5,15551,trainPhase
3,1,B2,b,b,True,903,5,15551,trainPhase
4,1,B1,b,b,True,844,5,15551,trainPhase
5,1,A1,a,b,False,1106,5,15551,trainPhase
0,2,A2,a,a,True,1934,5,15551,trainPhase
1,2,B2,b,b,True,2240,5,15551,trainPhase
2,2,B1,b,b,True,2139,5,15551,trainPhase
3,2,A1,a,a,True,788,5,15551,trainPhase
4,2,A0,a,a,True,1939,5,15551,trainPhase
5,2,B0,b,b,True,1249,5,15551,trainPhase
0,3,A1,a,a,True,1653,5,15551,trainPhase
1,3,B2,b,b,True,1090,5,15551,trainPhase
2,3,B0,b,b,True,1533,5,15551,trainPhase
3,3,B1,b,b,True,1697,5,15551,trainPhase
4,3,A2,a,a,True,989,5,15551,trainPhase
5,3,A0,a,a,True,1225,5,15551,trainPhase
0,4,A0,a,a,True,657,5,15551,trainPhase
1,4,A2,a,a,True,631,5,15551,trainPhase
2,4,B2,b,b,True,1021,5,15551,trainPhase
3,4,A1,a,a,True,1317,5,15551,trainPhase
0,0,B1,b,a,False,3387,5,15554,trainPhase
1,0,B2,b,a,False,1605,5,15554,trainPhase
2,0,A1,a,a,True,902,5,15554,trainPhase
3,0,A0,a,a,True,1211,5,15554,trainPhase
4,0,B0,b,b,True,834,5,15554,trainPhase
5,0,A2,a,a,True,948,5,15554,trainPhase
0,1,B0,b,b,True,815,5,15554,trainPhase
1,1,B2,b,b,True,860,5,15554,trainPhase
2,1,A1,a,a,True,679,5,15554,trainPhase
3,1,A2,a,a,True,1135,5,15554,trainPhase
4,1,B1,b,b,True,927,5,15554,trainPhase
5,1,A0,a,a,True,848,5,15554,trainPhase
0,2,A1,a,a,True,781,5,15554,trainPhase
1,2,B1,b,b,True,655,5,15554,trainPhase
2,2,B2,b,b,True,626,5,15554,trainPhase
3,2,A2,a,a,True,542,5,15554,trainPhase
4,2,B0,b,a,False,585,5,15554,trainPhase
5,2,A0,a,a,True,953,5,15554,trainPhase
0,3,B2,b,b,True,691,5,15554,trainPhase
1,3,A1,a,a,True,805,5,15554,trainPhase
2,3,A0,a,a,True,533,5,15554,trainPhase
3,3,A2,a,a,True,760,5,15554,trainPhase
4,3,B1,b,b,True,734,5,15554,trainPhase
5,3,B0,b,b,True,1953,5,15554,trainPhase
0,4,B0,b,b,True,912,5,15554,trainPhase
1,4,A1,a,a,True,1029,5,15554,trainPhase
2,4,B2,b,b,True,965,5,15554,trainPhase
3,4,B1,b,b,True,752,5,15554,trainPhase
4,4,A0,a,a,True,794,5,15554,trainPhase
5,4,A2,a,a,True,870,5,15554,trainPhase
0,5,A2,a,a,True,824,5,15554,trainPhase
1,5,A1,a,a,True,894,5,15554,trainPhase
2,5,B2,b,b,True,944,5,15554,trainPhase
0,0,A1,a,a,True,2712,5,15557,trainPhase
1,0,B1,b,b,True,1048,5,15557,trainPhase
2,0,A0,a,a,True,1169,5,15557,trainPhase
3,0,B0,b,b,True,1029,5,15557,trainPhase
4,0,B2,b,b,True,1118,5,15557,trainPhase
5,0,A2,a,b,False,1577,5,15557,trainPhase
0,1,A1,a,a,True,1424,5,15557,trainPhase
1,1,A2,a,a,True,996,5,15557,trainPhase
2,1,A0,a,a,True,1639,5,15557,trainPhase
3,1,B1,b,b,True,765,5,15557,trainPhase
4,1,B0,b,b,True,1109,5,15557,trainPhase
5,1,B2,b,b,True,890,5,15557,trainPhase
0,2,B2,b,b,True,695,5,15557,trainPhase
1,2,A1,a,a,True,628,5,15557,trainPhase
2,2,A2,a,a,True,1380,5,15557,trainPhase
3,2,B1,b,b,True,702,5,15557,trainPhase
4,2,A0,a,a,True,901,5,15557,trainPhase
5,2,B0,b,b,True,1388,5,15557,trainPhase
0,3,A2,a,a,True,1333,5,15557,trainPhase
1,3,B1,b,b,True,757,5,15557,trainPhase
2,3,B0,b,b,True,909,5,15557,trainPhase
3,3,A0,a,a,True,685,5,15557,trainPhase
0,0,A1,a,a,True,4250,5,15560,trainPhase
1,0,A2,a,a,True,1797,5,15560,trainPhase
2,0,B2,b,b,True,1354,5,15560,trainPhase
3,0,B1,b,b,True,2052,5,15560,trainPhase
4,0,B0,b,b,True,2485,5,15560,trainPhase
5,0,A0,a,a,True,2215,5,15560,trainPhase
0,1,B0,b,b,True,1458,5,15560,trainPhase
1,1,B2,b,b,True,805,5,15560,trainPhase
2,1,A2,a,b,False,1365,5,15560,trainPhase
3,1,A0,a,a,True,856,5,15560,trainPhase
4,1,A1,a,a,True,988,5,15560,trainPhase
5,1,B1,b,b,True,887,5,15560,trainPhase
0,2,A0,a,a,True,885,5,15560,trainPhase
1,2,B2,b,b,True,837,5,15560,trainPhase
2,2,B1,b,b,True,1024,5,15560,trainPhase
3,2,B0,b,b,True,2141,5,15560,trainPhase
4,2,A2,a,a,True,1645,5,15560,trainPhase
5,2,A1,a,a,True,749,5,15560,trainPhase
0,3,A1,a,a,True,949,5,15560,trainPhase
1,3,B2,b,b,True,837,5,15560,trainPhase
2,3,B1,b,b,True,977,5,15560,trainPhase
3,3,A2,a,a,True,1146,5,15560,trainPhase
4,3,A0,a,a,True,1153,5,15560,trainPhase
5,3,B0,b,b,True,965,5,15560,trainPhase
0,4,A0,a,a,True,851,5,15560,trainPhase
0,0,B1,b,a,False,6249,5,14921,trainPhase
1,0,A2,a,b,False,1721,5,14921,trainPhase
2,0,A1,a,b,False,1865,5,14921,trainPhase
3,0,B0,b,b,True,2322,5,14921,trainPhase
4,0,A0,a,a,True,1467,5,14921,trainPhase
5,0,B2,b,b,True,1266,5,14921,trainPhase
0,1,A1,a,a,True,1146,5,14921,trainPhase
1,1,B0,b,b,True,1160,5,14921,trainPhase
2,1,A0,a,a,True,661,5,14921,trainPhase
3,1,B1,b,b,True,635,5,14921,trainPhase
4,1,B2,b,b,True,1438,5,14921,trainPhase
5,1,A2,a,a,True,2910,5,14921,trainPhase
0,2,A1,a,a,True,1580,5,14921,trainPhase
1,2,A2,a,b,False,1182,5,14921,trainPhase
2,2,B0,b,b,True,1324,5,14921,trainPhase
3,2,B2,b,b,True,893,5,14921,trainPhase
4,2,B1,b,b,True,973,5,14921,trainPhase
5,2,A0,a,a,True,798,5,14921,trainPhase
0,3,B1,b,b,True,758,5,14921,trainPhase
1,3,B0,b,b,True,1245,5,14921,trainPhase
2,3,A1,a,a,True,661,5,14921,trainPhase
3,3,A2,a,b,False,1284,5,14921,trainPhase
4,3,B2,b,b,True,1030,5,14921,trainPhase
5,3,A0,a,a,True,678,5,14921,trainPhase
0,4,B2,b,b,True,693,5,14921,trainPhase
1,4,B1,b,b,True,813,5,14921,trainPhase
2,4,A0,a,a,True,622,5,14921,trainPhase
3,4,A1,a,a,True,965,5,14921,trainPhase
4,4,A2,a,a,True,885,5,14921,trainPhase
5,4,B0,b,b,True,1438,5,14921,trainPhase
0,5,B0,b,b,True,933,5,14921,trainPhase
1,5,A2,a,b,False,633,5,14921,trainPhase
2,5,B2,b,b,True,1171,5,14921,trainPhase
3,5,A1,a,a,True,1135,5,14921,trainPhase
4,5,B1,b,b,True,1398,5,14921,trainPhase
5,5,A0,a,a,True,1502,5,14921,trainPhase
0,6,B0,b,b,True,1094,5,14921,trainPhase
1,6,B1,b,b,True,1157,5,14921,trainPhase
2,6,B2,b,b,True,1254,5,14921,trainPhase
3,6,A0,a,a,True,1211,5,14921,trainPhase
4,6,A2,a,a,True,1688,5,14921,trainPhase
5,6,A1,a,a,True,966,5,14921,trainPhase
0,7,B2,b,b,True,845,5,14921,trainPhase
1,7,A0,a,a,True,837,5,14921,trainPhase
2,7,B0,b,b,True,1557,5,14921,trainPhase
3,7,B1,b,b,True,933,5,14921,trainPhase
4,7,A1,a,a,True,997,5,14921,trainPhase
5,7,A2,a,a,True,1149,5,14921,trainPhase
0,0,A2,a,a,True,2332,5,14926,trainPhase
1,0,B2,b,a,False,2943,5,14926,trainPhase
2,0,B0,b,a,False,2003,5,14926,trainPhase
3,0,B1,b,b,True,1843,5,14926,trainPhase
4,0,A1,a,b,False,1452,5,14926,trainPhase
5,0,A0,a,b,False,2485,5,14926,trainPhase
0,1,A0,a,a,True,3388,5,14926,trainPhase
1,1,B0,b,a,False,2896,5,14926,trainPhase
2,1,A1,a,a,True,2349,5,14926,trainPhase
3,1,A2,a,a,True,5017,5,14926,trainPhase
4,1,B2,b,b,True,1478,5,14926,trainPhase
5,1,B1,b,b,True,1820,5,14926,trainPhase
0,2,A0,a,a,True,1040,5,14926,trainPhase
1,2,A1,a,b,False,11564,5,14926,trainPhase
2,2,B1,b,b,True,2371,5,14926,trainPhase
3,2,B0,b,b,True,1245,5,14926,trainPhase
4,2,B2,b,b,True,701,5,14926,trainPhase
5,2,A2,a,a,True,1180,5,14926,trainPhase
0,3,A1,a,a,True,2824,5,14926,trainPhase
1,3,B1,b,b,True,1261,5,14926,trainPhase
2,3,B2,b,b,True,1026,5,14926,trainPhase
3,3,A0,a,a,True,1206,5,14926,trainPhase
4,3,B0,b,b,True,1685,5,14926,trainPhase
5,3,A2,a,a,True,853,5,14926,trainPhase
0,4,B2,b,b,True,1029,5,14926,trainPhase
1,4,A1,a,a,True,1448,5,14926,trainPhase
2,4,A0,a,a,True,894,5,14926,trainPhase
3,4,B1,b,b,True,1757,5,14926,trainPhase
4,4,B0,b,b,True,1105,5,14926,trainPhase
5,4,A2,a,a,True,2461,5,14926,trainPhase
0,0,A0,a,b,False,3502,5,14931,trainPhase
1,0,B1,b,a,False,1716,5,14931,trainPhase
2,0,B0,b,b,True,1432,5,14931,trainPhase
3,0,A1,a,a,True,1555,5,14931,trainPhase
4,0,B2,b,b,True,1222,5,14931,trainPhase
5,0,A2,a,a,True,1327,5,14931,trainPhase
0,1,A0,a,a,True,798,5,14931,trainPhase
1,1,B1,b,b,True,733,5,14931,trainPhase
2,1,B2,b,b,True,675,5,14931,trainPhase
3,1,A2,a,a,True,804,5,14931,trainPhase
4,1,B0,b,b,True,1417,5,14931,trainPhase
5,1,A1,a,a,True,859,5,14931,trainPhase
0,2,A1,a,a,True,809,5,14931,trainPhase
1,2,B1,b,b,True,750,5,14931,trainPhase
2,2,A2,a,b,False,2277,5,14931,trainPhase
3,2,A0,a,a,True,746,5,14931,trainPhase
4,2,B0,b,b,True,801,5,14931,trainPhase
5,2,B2,b,b,True,638,5,14931,trainPhase
0,3,B2,b,b,True,650,5,14931,trainPhase
1,3,B0,b,b,True,1015,5,14931,trainPhase
2,3,A1,a,a,True,634,5,14931,trainPhase
3,3,A2,a,a,True,931,5,14931,trainPhase
4,3,B1,b,b,True,744,5,14931,trainPhase
5,3,A0,a,a,True,779,5,14931,trainPhase
0,4,A2,a,a,True,711,5,14931,trainPhase
1,4,B1,b,b,True,600,5,14931,trainPhase
2,4,B2,b,b,True,606,5,14931,trainPhase
3,4,A0,a,a,True,809,5,14931,trainPhase
4,4,A1,a,a,True,687,5,14931,trainPhase
5,4,B0,b,b,True,979,5,14931,trainPhase
0,5,A1,a,a,True,796,5,14931,trainPhase
0,0,B0,b,a,False,2180,5,14936,trainPhase
1,0,A2,a,b,False,2101,5,14936,trainPhase
2,0,B2,b,b,True,1942,5,14936,trainPhase
3,0,B1,b,b,True,1463,5,14936,trainPhase
4,0,A0,a,a,True,906,5,14936,trainPhase
5,0,A1,a,b,False,917,5,14936,trainPhase
0,1,B2,b,a,False,1169,5,14936,trainPhase
1,1,B0,b,a,False,2245,5,14936,trainPhase
2,1,A0,a,a,True,1689,5,14936,trainPhase
3,1,A1,a,b,False,1406,5,14936,trainPhase
4,1,B1,b,a,False,4142,5,14936,trainPhase
5,1,A2,a,a,True,2709,5,14936,trainPhase
0,2,A1,a,a,True,3140,5,14936,trainPhase
1,2,B0,b,b,True,2023,5,14936,trainPhase
2,2,B2,b,b,True,1112,5,14936,trainPhase
3,2,B1,b,b,True,1448,5,14936,trainPhase
4,2,A2,a,a,True,1032,5,14936,trainPhase
5,2,A0,a,a,True,994,5,14936,trainPhase
0,3,B1,b,b,True,1415,5,14936,trainPhase
1,3,B2,b,b,True,795,5,14936,trainPhase
2,3,B0,b,b,True,1006,5,14936,trainPhase
3,3,A0,a,a,True,918,5,14936,trainPhase
4,3,A1,a,a,True,3620,5,14936,trainPhase
5,3,A2,a,a,True,970,5,14936,trainPhase
0,4,B0,b,b,True,1219,5,14936,trainPhase
1,4,A1,a,a,True,1204,5,14936,trainPhase
2,4,B2,b,b,True,2078,5,14936,trainPhase
0,0,B2,b,b,True,2090,5,14941,trainPhase
1,0,B1,b,b,True,1278,5,14941,trainPhase
2,0,A0,a,a,True,883,5,14941,trainPhase
3,0,B0,b,b,True,1061,5,14941,trainPhase
4,0,A1,a,a,True,652,5,14941,trainPhase
5,0,A2,a,a,True,821,5,14941,trainPhase
0,1,A0,a,a,True,741,5,14941,trainPhase
1,1,B0,b,b,True,597,5,14941,trainPhase
2,1,B2,b,b,True,853,5,14941,trainPhase
3,1,A2,a,a,True,766,5,14941,trainPhase
4,1,A1,a,a,True,686,5,14941,trainPhase
5,1,B1,b,b,True,590,5,14941,trainPhase
0,2,B2,b,a,False,861,5,14941,trainPhase
1,2,A2,a,b,False,2429,5,14941,trainPhase
2,2,A1,a,a,True,1621,5,14941,trainPhase
3,2,B0,b,a,False,1102,5,14941,trainPhase
4,2,B1,b,b,True,1269,5,14941,trainPhase
5,2,A0,a,a,True,1053,5,14941,trainPhase
0,3,B0,b,b,True,830,5,14941,trainPhase
1,3,A2,a,b,False,885,5,14941,trainPhase
2,3,B2,b,a,False,1189,5,14941,trainPhase
3,3,B1,b,b,True,1021,5,14941,trainPhase
4,3,A1,a,a,True,896,5,14941,trainPhase
5,3,A0,a,a,True,805,5,14941,trainPhase
0,4,A1,a,a,True,699,5,14941,trainPhase
1,4,A2,a,a,True,645,5,14941,trainPhase
2,4,A0,a,a,True,661,5,14941,trainPhase
3,4,B2,b,b,True,678,5,14941,trainPhase
4,4,B0,b,b,True,1510,5,14941,trainPhase
5,4,B1,b,b,True,649,5,14941,trainPhase
0,5,B2,b,b,True,551,5,14941,trainPhase
1,5,A2,a,a,True,766,5,14941,trainPhase
2,5,A0,a,a,True,582,5,14941,trainPhase
3,5,A1,a,a,True,565,5,14941,trainPhase
4,5,B1,b,b,True,781,5,14941,trainPhase
5,5,B0,b,b,True,530,5,14941,trainPhase
0,6,A0,a,a,True,726,5,14941,trainPhase
0,0,A0,a,b,False,3202,5,14946,trainPhase
1,0,A1,a,b,False,1806,5,14946,trainPhase
2,0,B0,b,b,True,1697,5,14946,trainPhase
3,0,B1,b,b,True,1650,5,14946,trainPhase
4,0,B2,b,b,True,1728,5,14946,trainPhase
5,0,A2,a,a,True,1467,5,14946,trainPhase
0,1,A1,a,a,True,1370,5,14946,trainPhase
1,1,B2,b,b,True,1695,5,14946,trainPhase
2,1,A2,a,a,True,1491,5,14946,trainPhase
3,1,B0,b,a,False,2231,5,14946,trainPhase
4,1,B1,b,b,True,1515,5,14946,trainPhase
5,1,A0,a,a,True,1365,5,14946,trainPhase
0,2,A1,a,a,True,1493,5,14946,trainPhase
1,2,A2,a,a,True,1510,5,14946,trainPhase
2,2,B0,b,b,True,1356,5,14946,trainPhase
3,2,B1,b,b,True,1695,5,14946,trainPhase
4,2,B2,b,b,True,1386,5,14946,trainPhase
5,2,A0,a,a,True,1302,5,14946,trainPhase
0,3,A2,a,a,True,2313,5,14946,trainPhase
1,3,A0,a,a,True,1305,5,14946,trainPhase
2,3,B0,b,a,False,2172,5,14946,trainPhase
3,3,B2,b,b,True,971,5,14946,trainPhase
4,3,B1,b,b,True,1480,5,14946,trainPhase
5,3,A1,a,a,True,1215,5,14946,trainPhase
0,4,B1,b,b,True,1500,5,14946,trainPhase
1,4,A0,a,a,True,1281,5,14946,trainPhase
2,4,A1,a,a,True,1999,5,14946,trainPhase
3,4,B0,b,b,True,1887,5,14946,trainPhase
4,4,A2,a,b,False,1787,5,14946,trainPhase
5,4,B2,b,b,True,1262,5,14946,trainPhase
0,5,B0,b,b,True,1948,5,14946,trainPhase
1,5,B2,b,b,True,1885,5,14946,trainPhase
2,5,A1,a,a,True,5197,5,14946,trainPhase
3,5,B1,b,b,True,1429,5,14946,trainPhase
4,5,A2,a,a,True,1780,5,14946,trainPhase
5,5,A0,a,a,True,4218,5,14946,trainPhase
0,6,A2,a,a,True,3786,5,14946,trainPhase
1,6,A0,a,a,True,1671,5,14946,trainPhase
2,6,B0,b,b,True,1322,5,14946,trainPhase
3,6,B2,b,b,True,1313,5,14946,trainPhase
4,6,A1,a,a,True,1297,5,14946,trainPhase
5,6,B1,b,b,True,1396,5,14946,trainPhase
0,7,B1,b,b,True,1469,5,14946,trainPhase
1,7,B2,b,b,True,1293,5,14946,trainPhase
2,7,A0,a,a,True,1045,5,14946,trainPhase
0,0,A2,a,a,True,3318,5,14951,trainPhase
1,0,B2,b,b,True,1221,5,14951,trainPhase
2,0,B1,b,a,False,798,5,14951,trainPhase
3,0,A1,a,a,True,1556,5,14951,trainPhase
4,0,A0,a,b,False,912,5,14951,trainPhase
5,0,B0,b,a,False,629,5,14951,trainPhase
0,1,B0,b,b,True,1084,5,14951,trainPhase
1,1,B2,b,b,True,989,5,14951,trainPhase
2,1,A0,a,a,True,645,5,14951,trainPhase
3,1,B1,b,b,True,981,5,14951,trainPhase
4,1,A2,a,a,True,821,5,14951,trainPhase
5,1,A1,a,a,True,1855,5,14951,trainPhase
0,2,B1,b,b,True,894,5,14951,trainPhase
1,2,B0,b,a,False,1134,5,14951,trainPhase
2,2,B2,b,b,True,885,5,14951,trainPhase
3,2,A0,a,a,True,925,5,14951,trainPhase
4,2,A1,a,a,True,1437,5,14951,trainPhase
5,2,A2,a,b,False,1196,5,14951,trainPhase
0,3,A2,a,a,True,749,5,14951,trainPhase
1,3,B1,b,b,True,598,5,14951,trainPhase
2,3,A0,a,a,True,1061,5,14951,trainPhase
3,3,A1,a,a,True,525,5,14951,trainPhase
4,3,B0,b,b,True,1045,5,14951,trainPhase
5,3,B2,b,a,False,462,5,14951,trainPhase
0,4,B0,b,b,True,509,5,14951,trainPhase
1,4,B1,b,b,True,918,5,14951,trainPhase
2,4,A2,a,a,True,749,5,14951,trainPhase
3,4,B2,b,b,True,597,5,14951,trainPhase
4,4,A0,a,a,True,412,5,14951,trainPhase
5,4,A1,a,b,False,501,5,14951,trainPhase
0,5,B0,b,a,False,741,5,14951,trainPhase
1,5,B1,b,b,True,941,5,14951,trainPhase
2,5,A2,a,b,False,1046,5,14951,trainPhase
3,5,B2,b,a,False,357,5,14951,trainPhase
4,5,A0,a,a,True,1054,5,14951,trainPhase
5,5,A1,a,a,True,1030,5,14951,trainPhase
0,6,B0,b,b,True,725,5,14951,trainPhase
1,6,B1,b,b,True,870,5,14951,trainPhase
2,6,A0,a,a,True,822,5,14951,trainPhase
3,6,B2,b,b,True,808,5,14951,trainPhase
4,6,A2,a,b,False,854,5,14951,trainPhase
5,6,A1,a,a,True,1231,5,14951,trainPhase
0,7,A1,a,a,True,1146,5,14951,trainPhase
1,7,A0,a,a,True,768,5,14951,trainPhase
2,7,B0,b,b,True,1726,5,14951,trainPhase
3,7,B1,b,a,False,838,5,14951,trainPhase
4,7,B2,b,b,True,390,5,14951,trainPhase
5,7,A2,a,b,False,1512,5,14951,trainPhase
0,8,B0,b,a,False,557,5,14951,trainPhase
1,8,A0,a,a,True,975,5,14951,trainPhase
2,8,B1,b,b,True,758,5,14951,trainPhase
3,8,A1,a,a,True,1276,5,14951,trainPhase
4,8,B2,b,b,True,717,5,14951,trainPhase
5,8,A2,a,b,False,2006,5,14951,trainPhase
0,9,A2,a,a,True,756,5,14951,trainPhase
1,9,A1,a,a,True,1199,5,14951,trainPhase
2,9,B1,b,b,True,1061,5,14951,trainPhase
3,9,B0,b,b,True,829,5,14951,trainPhase
4,9,B2,b,b,True,1262,5,14951,trainPhase
5,9,A0,a,a,True,925,5,14951,trainPhase
0,10,A1,a,a,True,1125,5,14951,trainPhase
1,10,B0,b,b,True,837,5,14951,trainPhase
2,10,A0,a,a,True,602,5,14951,trainPhase
3,10,B1,b,b,True,604,5,14951,trainPhase
4,10,B2,b,b,True,1276,5,14951,trainPhase
5,10,A2,a,b,False,1438,5,14951,trainPhase
0,11,A2,a,a,True,477,5,14951,trainPhase
1,11,A1,a,a,True,1069,5,14951,trainPhase
2,11,B2,b,b,True,1218,5,14951,trainPhase
3,11,A0,a,a,True,669,5,14951,trainPhase
4,11,B1,b,b,True,637,5,14951,trainPhase
5,11,B0,b,b,True,1062,5,14951,trainPhase
0,12,B1,b,b,True,885,5,14951,trainPhase
1,12,A2,a,b,False,637,5,14951,trainPhase
2,12,B0,b,a,False,661,5,14951,trainPhase
3,12,A0,a,b,False,317,5,14951,trainPhase
4,12,B2,b,b,True,1110,5,14951,trainPhase
5,12,A1,a,a,True,630,5,14951,trainPhase
0,13,B0,b,b,True,702,5,14951,trainPhase
1,13,A2,a,a,True,726,5,14951,trainPhase
2,13,A1,a,a,True,1044,5,14951,trainPhase
3,13,B2,b,b,True,782,5,14951,trainPhase
4,13,B1,b,b,True,910,5,14951,trainPhase
5,13,A0,a,a,True,1145,5,14951,trainPhase
0,14,B2,b,b,True,1070,5,14951,trainPhase
1,14,A1,a,a,True,1165,5,14951,trainPhase
2,14,A2,a,b,False,758,5,14951,trainPhase
3,14,B1,b,b,True,2030,5,14951,trainPhase
4,14,B0,b,a,False,998,5,14951,trainPhase
5,14,A0,a,a,True,1291,5,14951,trainPhase
0,0,A0,a,a,True,3886,5,14971,trainPhase
1,0,A2,a,b,False,2480,5,14971,trainPhase
2,0,B1,b,a,False,2499,5,14971,trainPhase
3,0,B0,b,a,False,5909,5,14971,trainPhase
4,0,A1,a,b,False,1062,5,14971,trainPhase
5,0,B2,b,b,True,2509,5,14971,trainPhase
0,1,B0,b,a,False,1381,5,14971,trainPhase
1,1,B2,b,b,True,2356,5,14971,trainPhase
2,1,B1,b,b,True,1763,5,14971,trainPhase
3,1,A2,a,a,True,796,5,14971,trainPhase
4,1,A1,a,b,False,1103,5,14971,trainPhase
5,1,A0,a,a,True,1199,5,14971,trainPhase
0,2,B0,b,a,False,695,5,14971,trainPhase
1,2,A0,a,a,True,3421,5,14971,trainPhase
2,2,B2,b,b,True,941,5,14971,trainPhase
3,2,A2,a,a,True,1541,5,14971,trainPhase
4,2,A1,a,b,False,1021,5,14971,trainPhase
5,2,B1,b,a,False,1277,5,14971,trainPhase
0,3,B0,b,b,True,983,5,14971,trainPhase
1,3,A1,a,b,False,686,5,14971,trainPhase
2,3,A2,a,a,True,968,5,14971,trainPhase
3,3,B2,b,a,False,1092,5,14971,trainPhase
4,3,A0,a,a,True,735,5,14971,trainPhase
5,3,B1,b,b,True,678,5,14971,trainPhase
0,4,A0,a,a,True,799,5,14971,trainPhase
1,4,A2,a,a,True,1133,5,14971,trainPhase
2,4,B0,b,a,False,1125,5,14971,trainPhase
3,4,B2,b,b,True,974,5,14971,trainPhase
4,4,A1,a,b,False,628,5,14971,trainPhase
5,4,B1,b,a,False,934,5,14971,trainPhase
0,5,A0,a,a,True,771,5,14971,trainPhase
1,5,A1,a,a,True,2541,5,14971,trainPhase
2,5,B2,b,b,True,4444,5,14971,trainPhase
3,5,A2,a,b,False,2870,5,14971,trainPhase
4,5,B0,b,a,False,838,5,14971,trainPhase
5,5,B1,b,a,False,1470,5,14971,trainPhase
0,6,B1,b,b,True,2082,5,14971,trainPhase
1,6,A2,a,a,True,2487,5,14971,trainPhase
2,6,A1,a,b,False,1173,5,14971,trainPhase
3,6,A0,a,a,True,898,5,14971,trainPhase
4,6,B2,b,b,True,1515,5,14971,trainPhase
5,6,B0,b,a,False,881,5,14971,trainPhase
0,7,A0,a,a,True,903,5,14971,trainPhase
1,7,A1,a,a,True,525,5,14971,trainPhase
2,7,B0,b,b,True,995,5,14971,trainPhase
3,7,B2,b,b,True,998,5,14971,trainPhase
4,7,B1,b,b,True,933,5,14971,trainPhase
5,7,A2,a,a,True,1599,5,14971,trainPhase
0,8,A0,a,a,True,859,5,14971,trainPhase
1,8,B0,b,b,True,1287,5,14971,trainPhase
2,8,B2,b,b,True,1374,5,14971,trainPhase
3,8,A1,a,a,True,755,5,14971,trainPhase
4,8,A2,a,a,True,1750,5,14971,trainPhase
5,8,B1,b,b,True,853,5,14971,trainPhase
0,9,A1,a,a,True,1615,5,14971,trainPhase
1,9,B1,b,b,True,862,5,14971,trainPhase
2,9,A0,a,a,True,590,5,14971,trainPhase
3,9,B2,b,b,True,1031,5,14971,trainPhase
0,0,A2,a,a,True,2967,5,14976,trainPhase
1,0,B0,b,a,False,1483,5,14976,trainPhase
2,0,A0,a,a,True,2330,5,14976,trainPhase
3,0,A1,a,b,False,1038,5,14976,trainPhase
4,0,B2,b,a,False,7063,5,14976,trainPhase
5,0,B1,b,b,True,1679,5,14976,trainPhase
0,1,A2,a,a,True,3761,5,14976,trainPhase
1,1,A0,a,b,False,1276,5,14976,trainPhase
2,1,B0,b,b,True,1333,5,14976,trainPhase
3,1,B2,b,b,True,1143,5,14976,trainPhase
4,1,A1,a,b,False,1027,5,14976,trainPhase
5,1,B1,b,b,True,1439,5,14976,trainPhase
0,2,A0,a,a,True,1046,5,14976,trainPhase
1,2,B0,b,b,True,3036,5,14976,trainPhase
2,2,A2,a,a,True,872,5,14976,trainPhase
3,2,B2,b,a,False,3581,5,14976,trainPhase
4,2,A1,a,b,False,1767,5,14976,trainPhase
5,2,B1,b,b,True,1518,5,14976,trainPhase
0,3,B1,b,b,True,1692,5,14976,trainPhase
1,3,A0,a,a,True,1311,5,14976,trainPhase
2,3,A1,a,b,False,1453,5,14976,trainPhase
3,3,B0,b,b,True,5837,5,14976,trainPhase
4,3,A2,a,a,True,1090,5,14976,trainPhase
5,3,B2,b,b,True,4858,5,14976,trainPhase
0,4,B2,b,b,True,945,5,14976,trainPhase
1,4,A2,a,a,True,982,5,14976,trainPhase
2,4,A1,a,a,True,2566,5,14976,trainPhase
3,4,B1,b,b,True,843,5,14976,trainPhase
4,4,B0,b,a,False,1214,5,14976,trainPhase
5,4,A0,a,a,True,1468,5,14976,trainPhase
0,5,B1,b,b,True,744,5,14976,trainPhase
1,5,A1,a,a,True,2145,5,14976,trainPhase
2,5,B2,b,b,True,850,5,14976,trainPhase
3,5,A0,a,a,True,4934,5,14976,trainPhase
4,5,A2,a,a,True,1616,5,14976,trainPhase
5,5,B0,b,b,True,1788,5,14976,trainPhase
0,6,B2,b,b,True,2227,5,14976,trainPhase
1,6,A0,a,a,True,919,5,14976,trainPhase
2,6,B0,b,b,True,838,5,14976,trainPhase
3,6,A2,a,a,True,1405,5,14976,trainPhase
4,6,B1,b,b,True,1361,5,14976,trainPhase
5,6,A1,a,a,True,933,5,14976,trainPhase
0,7,A2,a,a,True,2793,5,14976,trainPhase
1,7,B2,b,b,True,872,5,14976,trainPhase
2,7,B0,b,b,True,843,5,14976,trainPhase
0,0,B0,b,b,True,3737,5,14981,trainPhase
1,0,A2,a,a,True,2823,5,14981,trainPhase
2,0,B1,b,b,True,2518,5,14981,trainPhase
3,0,A1,a,b,False,2454,5,14981,trainPhase
4,0,A0,a,a,True,5150,5,14981,trainPhase
5,0,B2,b,b,True,1726,5,14981,trainPhase
0,1,B0,b,b,True,1275,5,14981,trainPhase
1,1,A0,a,a,True,1357,5,14981,trainPhase
2,1,A1,a,a,True,2101,5,14981,trainPhase
3,1,B2,b,b,True,1114,5,14981,trainPhase
4,1,B1,b,b,True,981,5,14981,trainPhase
5,1,A2,a,a,True,1541,5,14981,trainPhase
0,2,B0,b,b,True,861,5,14981,trainPhase
1,2,B2,b,b,True,732,5,14981,trainPhase
2,2,B1,b,b,True,847,5,14981,trainPhase
3,2,A0,a,a,True,702,5,14981,trainPhase
4,2,A1,a,a,True,2789,5,14981,trainPhase
5,2,A2,a,a,True,1724,5,14981,trainPhase
0,3,B0,b,b,True,1086,5,14981,trainPhase
1,3,A0,a,a,True,2009,5,14981,trainPhase
0,0,A2,a,a,True,3476,5,14986,trainPhase
1,0,A1,a,a,True,1793,5,14986,trainPhase
2,0,B2,b,b,True,1489,5,14986,trainPhase
3,0,A0,a,a,True,2095,5,14986,trainPhase
4,0,B0,b,b,True,871,5,14986,trainPhase
5,0,B1,b,b,True,1150,5,14986,trainPhase
0,1,B1,b,b,True,1228,5,14986,trainPhase
1,1,A2,a,b,False,1669,5,14986,trainPhase
2,1,A1,a,a,True,1688,5,14986,trainPhase
3,1,A0,a,a,True,911,5,14986,trainPhase
4,1,B0,b,b,True,709,5,14986,trainPhase
5,1,B2,b,b,True,1125,5,14986,trainPhase
