trial,block,stimId,category,response,accuracy,rt,condition,id,phase
0,0,T1,t,b,False,1269,5,15038,testPhase
1,0,T0,t,b,False,765,5,15038,testPhase
2,0,T2,t,b,False,1039,5,15038,testPhase
3,0,T2,t,b,False,677,5,15038,testPhase
4,0,T0,t,b,False,579,5,15038,testPhase
5,0,B1,b,b,True,700,5,15038,testPhase
6,0,T1,t,b,False,527,5,15038,testPhase
7,0,T2,t,b,False,526,5,15038,testPhase
8,0,A0,a,a,True,769,5,15038,testPhase
9,0,B2,b,b,True,845,5,15038,testPhase
10,0,T1,t,b,False,654,5,15038,testPhase
11,0,B0,b,b,True,493,5,15038,testPhase
12,0,A2,a,b,False,489,5,15038,testPhase
13,0,A1,a,a,True,1016,5,15038,testPhase
14,0,T0,t,b,False,792,5,15038,testPhase
15,0,T0,t,b,False,840,5,15038,testPhase
16,0,T2,t,b,False,724,5,15038,testPhase
17,0,T0,t,b,False,609,5,15038,testPhase
18,0,T1,t,b,False,440,5,15038,testPhase
19,0,T1,t,b,False,396,5,15038,testPhase
20,0,T2,t,b,False,486,5,15038,testPhase
0,0,B1,b,b,True,1012,5,15043,testPhase
1,0,T0,t,b,False,1658,5,15043,testPhase
2,0,T1,t,b,False,934,5,15043,testPhase
3,0,B2,b,b,True,1080,5,15043,testPhase
4,0,T1,t,a,False,2310,5,15043,testPhase
5,0,T0,t,a,False,2149,5,15043,testPhase
6,0,T1,t,b,False,828,5,15043,testPhase
7,0,T2,t,b,False,926,5,15043,testPhase
8,0,T2,t,b,False,1379,5,15043,testPhase
9,0,T0,t,a,False,1454,5,15043,testPhase
10,0,T1,t,b,False,2933,5,15043,testPhase
11,0,T2,t,b,False,870,5,15043,testPhase
12,0,T0,t,b,False,1161,5,15043,testPhase
13,0,A1,a,a,True,918,5,15043,testPhase
14,0,B0,b,b,True,1147,5,15043,testPhase
15,0,A2,a,a,True,1309,5,15043,testPhase
16,0,T1,t,b,False,878,5,15043,testPhase
17,0,T2,t,b,False,821,5,15043,testPhase
18,0,T2,t,b,False,1037,5,15043,testPhase
19,0,A0,a,a,True,906,5,15043,testPhase
20,0,T0,t,b,False,720,5,15043,testPhase
0,0,B1,b,b,True,1375,5,15065,testPhase
1,0,T2,t,a,False,3578,5,15065,testPhase
2,0,A1,a,a,True,973,5,15065,testPhase
3,0,B2,b,b,True,809,5,15065,testPhase
4,0,T1,t,b,False,4105,5,15065,testPhase
5,0,T2,t,b,False,1000,5,15065,testPhase
6,0,T0,t,b,False,1180,5,15065,testPhase
7,0,A2,a,a,True,1049,5,15065,testPhase
8,0,T2,t,b,False,1504,5,15065,testPhase
9,0,B0,b,b,True,1504,5,15065,testPhase
10,0,T1,t,b,False,1137,5,15065,testPhase
11,0,T1,t,b,False,745,5,15065,testPhase
12,0,T1,t,b,False,711,5,15065,testPhase
13,0,A0,a,a,True,712,5,15065,testPhase
14,0,T1,t,b,False,862,5,15065,testPhase
15,0,T2,t,b,False,726,5,15065,testPhase
16,0,T0,t,b,False,701,5,15065,testPhase
17,0,T0,t,b,False,712,5,15065,testPhase
18,0,T2,t,b,False,720,5,15065,testPhase
19,0,T0,t,b,False,662,5,15065,testPhase
20,0,T0,t,b,False,620,5,15065,testPhase
0,0,A0,a,a,True,2094,5,15070,testPhase
1,0,T2,t,b,False,2290,5,15070,testPhase
2,0,T2,t,b,False,1581,5,15070,testPhase
3,0,T2,t,b,False,2017,5,15070,testPhase
4,0,T1,t,b,False,2430,5,15070,testPhase
5,0,B0,b,b,True,2313,5,15070,testPhase
6,0,T0,t,b,False,1257,5,15070,testPhase
7,0,T0,t,b,False,1346,5,15070,testPhase
8,0,T1,t,b,False,1303,5,15070,testPhase
9,0,T2,t,b,False,1344,5,15070,testPhase
10,0,T2,t,b,False,1324,5,15070,testPhase
11,0,A2,a,a,True,2982,5,15070,testPhase
12,0,T0,t,b,False,1385,5,15070,testPhase
13,0,A1,a,a,True,1381,5,15070,testPhase
14,0,T1,t,b,False,1576,5,15070,testPhase
15,0,T1,t,b,False,1315,5,15070,testPhase
16,0,T0,t,b,False,1478,5,15070,testPhase
17,0,B2,b,b,True,1164,5,15070,testPhase
18,0,T0,t,b,False,1523,5,15070,testPhase
19,0,T1,t,b,False,1054,5,15070,testPhase
20,0,B1,b,b,True,1208,5,15070,testPhase
0,0,T1,t,b,False,1311,5,15085,testPhase
1,0,T2,t,b,False,2341,5,15085,testPhase
2,0,T0,t,a,False,1086,5,15085,testPhase
3,0,A0,a,a,True,1027,5,15085,testPhase
4,0,T0,t,b,False,975,5,15085,testPhase
5,0,B0,b,b,True,1055,5,15085,testPhase
6,0,T2,t,b,False,1037,5,15085,testPhase
7,0,T0,t,b,False,925,5,15085,testPhase
8,0,T1,t,b,False,819,5,15085,testPhase
9,0,A2,a,a,True,1204,5,15085,testPhase
10,0,T1,t,b,False,784,5,15085,testPhase
11,0,B1,b,b,True,754,5,15085,testPhase
12,0,T1,t,b,False,1708,5,15085,testPhase
13,0,A1,a,a,True,759,5,15085,testPhase
14,0,T0,t,b,False,773,5,15085,testPhase
15,0,T0,t,b,False,1101,5,15085,testPhase
16,0,B2,b,b,True,1054,5,15085,testPhase
17,0,T1,t,b,False,1642,5,15085,testPhase
18,0,T2,t,b,False,854,5,15085,testPhase
19,0,T2,t,b,False,701,5,15085,testPhase
20,0,T2,t,b,False,620,5,15085,testPhase
0,0,T0,t,a,False,2165,5,15090,testPhase
1,0,T1,t,a,False,862,5,15090,testPhase
2,0,T2,t,a,False,1766,5,15090,testPhase
3,0,T0,t,a,False,1492,5,15090,testPhase
4,0,T1,t,a,False,974,5,15090,testPhase
5,0,T2,t,a,False,897,5,15090,testPhase
6,0,T1,t,a,False,1781,5,15090,testPhase
7,0,T1,t,a,False,989,5,15090,testPhase
8,0,T1,t,b,False,1603,5,15090,testPhase
9,0,T0,t,a,False,1111,5,15090,testPhase
10,0,B0,b,b,True,1085,5,15090,testPhase
11,0,T2,t,a,False,915,5,15090,testPhase
12,0,T2,t,a,False,846,5,15090,testPhase
13,0,A1,a,a,True,4781,5,15090,testPhase
14,0,T0,t,a,False,1261,5,15090,testPhase
15,0,B1,b,b,True,870,5,15090,testPhase
16,0,A0,a,a,True,950,5,15090,testPhase
17,0,T2,t,a,False,1662,5,15090,testPhase
18,0,B2,b,b,True,1040,5,15090,testPhase
19,0,A2,a,a,True,990,5,15090,testPhase
20,0,T0,t,a,False,1093,5,15090,testPhase
0,0,T1,t,a,False,2006,5,15095,testPhase
1,0,T2,t,a,False,1113,5,15095,testPhase
2,0,T0,t,a,False,1062,5,15095,testPhase
3,0,T2,t,a,False,1145,5,15095,testPhase
4,0,T2,t,a,False,1009,5,15095,testPhase
5,0,A2,a,a,True,1345,5,15095,testPhase
6,0,A1,a,a,True,891,5,15095,testPhase
7,0,T1,t,a,False,1239,5,15095,testPhase
8,0,T2,t,a,False,829,5,15095,testPhase
9,0,T0,t,a,False,819,5,15095,testPhase
10,0,T2,t,a,False,706,5,15095,testPhase
11,0,T0,t,a,False,837,5,15095,testPhase
12,0,T1,t,a,False,1797,5,15095,testPhase
13,0,B1,b,b,True,1437,5,15095,testPhase
14,0,T0,t,a,False,1269,5,15095,testPhase
15,0,T1,t,a,False,806,5,15095,testPhase
16,0,B0,b,a,False,1733,5,15095,testPhase
17,0,A0,a,a,True,1444,5,15095,testPhase
18,0,T0,t,a,False,1064,5,15095,testPhase
19,0,T1,t,a,False,884,5,15095,testPhase
20,0,B2,b,b,True,1054,5,15095,testPhase
0,0,B0,b,b,True,1075,5,15100,testPhase
1,0,A0,a,a,True,1028,5,15100,testPhase
2,0,T2,t,b,False,746,5,15100,testPhase
3,0,T2,t,b,False,640,5,15100,testPhase
4,0,T2,t,b,False,574,5,15100,testPhase
5,0,A2,a,b,False,727,5,15100,testPhase
6,0,T1,t,b,False,856,5,15100,testPhase
7,0,T1,t,b,False,465,5,15100,testPhase
8,0,T1,t,b,False,598,5,15100,testPhase
9,0,T2,t,b,False,514,5,15100,testPhase
10,0,A1,a,a,True,783,5,15100,testPhase
11,0,T0,t,b,False,923,5,15100,testPhase
12,0,T0,t,b,False,621,5,15100,testPhase
13,0,T0,t,b,False,650,5,15100,testPhase
14,0,T1,t,b,False,437,5,15100,testPhase
15,0,B2,b,b,True,551,5,15100,testPhase
16,0,T0,t,b,False,640,5,15100,testPhase
17,0,T0,t,b,False,422,5,15100,testPhase
18,0,T1,t,b,False,411,5,15100,testPhase
19,0,T2,t,b,False,417,5,15100,testPhase
20,0,B1,b,b,True,923,5,15100,testPhase
0,0,A1,a,a,True,1570,5,15105,testPhase
1,0,T1,t,a,False,1172,5,15105,testPhase
2,0,T2,t,a,False,836,5,15105,testPhase
3,0,T2,t,a,False,2188,5,15105,testPhase
4,0,A0,a,a,True,1006,5,15105,testPhase
5,0,T2,t,a,False,1254,5,15105,testPhase
6,0,B0,b,b,True,1050,5,15105,testPhase
7,0,T0,t,a,False,1271,5,15105,testPhase
8,0,T0,t,a,False,865,5,15105,testPhase
9,0,B2,b,b,True,765,5,15105,testPhase
10,0,T2,t,a,False,918,5,15105,testPhase
11,0,T1,t,a,False,692,5,15105,testPhase
12,0,B1,b,b,True,760,5,15105,testPhase
13,0,A2,a,a,True,805,5,15105,testPhase
14,0,T0,t,a,False,856,5,15105,testPhase
15,0,T2,t,a,False,841,5,15105,testPhase
16,0,T1,t,a,False,728,5,15105,testPhase
17,0,T1,t,a,False,670,5,15105,testPhase
18,0,T1,t,a,False,910,5,15105,testPhase
19,0,T0,t,a,False,708,5,15105,testPhase
20,0,T0,t,a,False,1540,5,15105,testPhase
0,0,T2,t,a,False,2218,5,15110,testPhase
1,0,T0,t,a,False,1135,5,15110,testPhase
2,0,T0,t,a,False,1594,5,15110,testPhase
3,0,A1,a,a,True,1384,5,15110,testPhase
4,0,T1,t,a,False,2008,5,15110,testPhase
5,0,B0,b,b,True,1580,5,15110,testPhase
6,0,T0,t,a,False,1379,5,15110,testPhase
7,0,T0,t,a,False,1170,5,15110,testPhase
8,0,T1,t,a,False,1148,5,15110,testPhase
9,0,T2,t,a,False,1372,5,15110,testPhase
10,0,B1,b,b,True,1213,5,15110,testPhase
11,0,T1,t,a,False,1304,5,15110,testPhase
12,0,T0,t,a,False,1198,5,15110,testPhase
13,0,T2,t,a,False,1637,5,15110,testPhase
14,0,T2,t,a,False,1368,5,15110,testPhase
15,0,A0,a,a,True,1452,5,15110,testPhase
16,0,T2,t,a,False,1258,5,15110,testPhase
17,0,B2,b,b,True,1376,5,15110,testPhase
18,0,T1,t,a,False,1367,5,15110,testPhase
19,0,A2,a,a,True,1268,5,15110,testPhase
20,0,T1,t,a,False,1268,5,15110,testPhase
0,0,T2,t,a,False,1952,5,15115,testPhase
1,0,T0,t,a,False,2442,5,15115,testPhase
2,0,T2,t,b,False,1573,5,15115,testPhase
3,0,T1,t,a,False,2358,5,15115,testPhase
4,0,T0,t,a,False,1037,5,15115,testPhase
5,0,T0,t,a,False,604,5,15115,testPhase
6,0,T2,t,a,False,423,5,15115,testPhase
7,0,T1,t,a,False,469,5,15115,testPhase
8,0,A2,a,a,True,430,5,15115,testPhase
9,0,T2,t,a,False,478,5,15115,testPhase
10,0,B2,b,a,False,461,5,15115,testPhase
11,0,T1,t,a,False,2221,5,15115,testPhase
12,0,T0,t,a,False,782,5,15115,testPhase
13,0,B1,b,b,True,1007,5,15115,testPhase
14,0,A1,a,a,True,1213,5,15115,testPhase
15,0,T0,t,a,False,1637,5,15115,testPhase
16,0,T1,t,a,False,862,5,15115,testPhase
17,0,T2,t,a,False,822,5,15115,testPhase
18,0,B0,b,b,True,1181,5,15115,testPhase
19,0,T1,t,a,False,885,5,15115,testPhase
20,0,A0,a,a,True,1206,5,15115,testPhase
0,0,A2,a,a,True,1589,5,15120,testPhase
1,0,B1,b,b,True,1230,5,15120,testPhase
2,0,A1,a,a,True,918,5,15120,testPhase
3,0,T2,t,a,False,2160,5,15120,testPhase
4,0,B2,b,b,True,683,5,15120,testPhase
5,0,A0,a,a,True,782,5,15120,testPhase
6,0,T0,t,a,False,2285,5,15120,testPhase
7,0,T1,t,a,False,1856,5,15120,testPhase
8,0,B0,b,b,True,1195,5,15120,testPhase
9,0,T0,t,b,False,466,5,15120,testPhase
10,0,T1,t,a,False,1237,5,15120,testPhase
11,0,T1,t,a,False,766,5,15120,testPhase
12,0,T0,t,a,False,952,5,15120,testPhase
13,0,T2,t,b,False,590,5,15120,testPhase
14,0,T2,t,b,False,2847,5,15120,testPhase
15,0,T1,t,b,False,770,5,15120,testPhase
16,0,T2,t,b,False,1382,5,15120,testPhase
17,0,T0,t,a,False,601,5,15120,testPhase
18,0,T1,t,a,False,476,5,15120,testPhase
19,0,T2,t,a,False,439,5,15120,testPhase
20,0,T0,t,a,False,500,5,15120,testPhase
0,0,T2,t,b,False,2656,5,15125,testPhase
1,0,A1,a,a,True,1857,5,15125,testPhase
2,0,T0,t,b,False,3122,5,15125,testPhase
3,0,T1,t,b,False,1461,5,15125,testPhase
4,0,A0,a,a,True,1028,5,15125,testPhase
5,0,T0,t,b,False,4066,5,15125,testPhase
6,0,T0,t,b,False,1440,5,15125,testPhase
7,0,T1,t,a,False,935,5,15125,testPhase
8,0,B0,b,a,False,3403,5,15125,testPhase
9,0,B2,b,b,True,1050,5,15125,testPhase
10,0,T2,t,b,False,2920,5,15125,testPhase
11,0,T0,t,b,False,1158,5,15125,testPhase
12,0,T2,t,b,False,974,5,15125,testPhase
13,0,T2,t,b,False,844,5,15125,testPhase
14,0,T1,t,b,False,688,5,15125,testPhase
15,0,T2,t,a,False,974,5,15125,testPhase
16,0,A2,a,a,True,1357,5,15125,testPhase
17,0,T1,t,a,False,1745,5,15125,testPhase
18,0,B1,b,b,True,1942,5,15125,testPhase
19,0,T1,t,a,False,1033,5,15125,testPhase
20,0,T0,t,a,False,1305,5,15125,testPhase
0,0,T1,t,b,False,3047,5,15130,testPhase
1,0,T0,t,b,False,1947,5,15130,testPhase
2,0,T2,t,b,False,1247,5,15130,testPhase
3,0,T2,t,b,False,1076,5,15130,testPhase
4,0,T1,t,b,False,2172,5,15130,testPhase
5,0,B2,b,b,True,824,5,15130,testPhase
6,0,A1,a,a,True,1032,5,15130,testPhase
7,0,T0,t,b,False,1587,5,15130,testPhase
8,0,B0,b,b,True,8678,5,15130,testPhase
9,0,T1,t,b,False,877,5,15130,testPhase
10,0,T2,t,b,False,655,5,15130,testPhase
11,0,T2,t,b,False,545,5,15130,testPhase
12,0,T0,t,b,False,655,5,15130,testPhase
13,0,A0,a,a,True,834,5,15130,testPhase
14,0,T1,t,b,False,1329,5,15130,testPhase
15,0,B1,b,b,True,984,5,15130,testPhase
16,0,T0,t,b,False,700,5,15130,testPhase
17,0,T2,t,b,False,564,5,15130,testPhase
18,0,T0,t,b,False,526,5,15130,testPhase
19,0,T1,t,b,False,544,5,15130,testPhase
20,0,A2,a,b,False,527,5,15130,testPhase
0,0,T0,t,b,False,5616,5,15135,testPhase
1,0,A1,a,a,True,1556,5,15135,testPhase
2,0,T1,t,b,False,4629,5,15135,testPhase
3,0,T2,t,b,False,1689,5,15135,testPhase
4,0,B0,b,b,True,1766,5,15135,testPhase
5,0,T1,t,b,False,5255,5,15135,testPhase
6,0,T0,t,b,False,817,5,15135,testPhase
7,0,T2,t,b,False,960,5,15135,testPhase
8,0,T2,t,b,False,1033,5,15135,testPhase
9,0,T1,t,b,False,2469,5,15135,testPhase
10,0,T2,t,b,False,677,5,15135,testPhase
11,0,A0,a,a,True,918,5,15135,testPhase
12,0,T1,t,b,False,1621,5,15135,testPhase
13,0,T2,t,b,False,998,5,15135,testPhase
14,0,B1,b,b,True,908,5,15135,testPhase
15,0,T0,t,b,False,2486,5,15135,testPhase
16,0,T0,t,b,False,664,5,15135,testPhase
17,0,B2,b,b,True,838,5,15135,testPhase
18,0,T0,t,a,False,1547,5,15135,testPhase
19,0,A2,a,a,True,1221,5,15135,testPhase
20,0,T1,t,b,False,949,5,15135,testPhase
0,0,T2,t,a,False,2754,5,15140,testPhase
1,0,T1,t,b,False,2093,5,15140,testPhase
2,0,T0,t,b,False,2522,5,15140,testPhase
3,0,T0,t,b,False,788,5,15140,testPhase
4,0,T1,t,b,False,2315,5,15140,testPhase
5,0,A0,a,a,True,925,5,15140,testPhase
6,0,T2,t,b,False,778,5,15140,testPhase
7,0,T2,t,b,False,781,5,15140,testPhase
8,0,T1,t,b,False,669,5,15140,testPhase
9,0,A2,a,a,True,1232,5,15140,testPhase
10,0,T0,t,b,False,1101,5,15140,testPhase
11,0,T0,t,b,False,820,5,15140,testPhase
12,0,T2,t,b,False,842,5,15140,testPhase
13,0,T2,t,b,False,695,5,15140,testPhase
14,0,B0,b,b,True,2320,5,15140,testPhase
15,0,T1,t,b,False,825,5,15140,testPhase
16,0,B1,b,b,True,969,5,15140,testPhase
17,0,T0,t,b,False,784,5,15140,testPhase
18,0,B2,b,b,True,834,5,15140,testPhase
19,0,T1,t,b,False,652,5,15140,testPhase
20,0,A1,a,a,True,1070,5,15140,testPhase
0,0,T2,t,b,False,1252,5,15145,testPhase
1,0,T0,t,b,False,1530,5,15145,testPhase
2,0,T2,t,b,False,1452,5,15145,testPhase
3,0,T2,t,b,False,1246,5,15145,testPhase
4,0,A2,a,a,True,797,5,15145,testPhase
5,0,B0,b,b,True,797,5,15145,testPhase
6,0,A1,a,a,True,733,5,15145,testPhase
7,0,T2,t,b,False,900,5,15145,testPhase
8,0,T1,t,b,False,838,5,15145,testPhase
9,0,T1,t,b,False,765,5,15145,testPhase
10,0,T0,t,b,False,895,5,15145,testPhase
11,0,T1,t,a,False,671,5,15145,testPhase
12,0,T1,t,a,False,669,5,15145,testPhase
13,0,T1,t,b,False,413,5,15145,testPhase
14,0,A0,a,a,True,1118,5,15145,testPhase
15,0,T0,t,b,False,541,5,15145,testPhase
16,0,T0,t,b,False,837,5,15145,testPhase
17,0,T0,t,b,False,412,5,15145,testPhase
18,0,B2,b,b,True,381,5,15145,testPhase
19,0,B1,b,b,True,582,5,15145,testPhase
20,0,T2,t,b,False,661,5,15145,testPhase
0,0,T2,t,b,False,2088,5,15150,testPhase
1,0,T1,t,b,False,1369,5,15150,testPhase
2,0,B0,b,b,True,1256,5,15150,testPhase
3,0,T0,t,b,False,1072,5,15150,testPhase
4,0,T1,t,b,False,4516,5,15150,testPhase
5,0,T2,t,b,False,968,5,15150,testPhase
6,0,T0,t,b,False,719,5,15150,testPhase
7,0,A0,a,a,True,999,5,15150,testPhase
8,0,T1,t,b,False,1392,5,15150,testPhase
9,0,T2,t,b,False,919,5,15150,testPhase
10,0,T0,t,b,False,1033,5,15150,testPhase
11,0,T1,t,b,False,749,5,15150,testPhase
12,0,A1,a,a,True,1504,5,15150,testPhase
13,0,T0,t,b,False,1113,5,15150,testPhase
14,0,T0,t,b,False,812,5,15150,testPhase
15,0,A2,a,a,True,1415,5,15150,testPhase
16,0,B1,b,b,True,934,5,15150,testPhase
17,0,T2,t,b,False,972,5,15150,testPhase
18,0,T2,t,b,False,699,5,15150,testPhase
19,0,T1,t,b,False,636,5,15150,testPhase
20,0,B2,b,b,True,1128,5,15150,testPhase
0,0,T1,t,a,False,1825,5,15155,testPhase
1,0,T0,t,a,False,1459,5,15155,testPhase
2,0,T2,t,a,False,1391,5,15155,testPhase
3,0,A1,a,a,True,4124,5,15155,testPhase
4,0,B0,b,b,True,1027,5,15155,testPhase
5,0,T0,t,a,False,1490,5,15155,testPhase
6,0,T2,t,a,False,831,5,15155,testPhase
7,0,T1,t,a,False,999,5,15155,testPhase
8,0,T0,t,a,False,671,5,15155,testPhase
9,0,T2,t,a,False,739,5,15155,testPhase
10,0,B2,b,b,True,1213,5,15155,testPhase
11,0,A2,a,a,True,1132,5,15155,testPhase
12,0,T0,t,a,False,782,5,15155,testPhase
13,0,T0,t,a,False,714,5,15155,testPhase
14,0,T1,t,a,False,626,5,15155,testPhase
15,0,T1,t,a,False,620,5,15155,testPhase
16,0,A0,a,a,True,1086,5,15155,testPhase
17,0,B1,b,b,True,1164,5,15155,testPhase
18,0,T1,t,a,False,1136,5,15155,testPhase
19,0,T2,t,a,False,647,5,15155,testPhase
20,0,T2,t,a,False,581,5,15155,testPhase
0,0,A0,a,a,True,1320,5,15160,testPhase
1,0,B1,b,b,True,1093,5,15160,testPhase
2,0,A1,a,a,True,1069,5,15160,testPhase
3,0,T0,t,b,False,1046,5,15160,testPhase
4,0,T1,t,b,False,989,5,15160,testPhase
5,0,B2,b,b,True,902,5,15160,testPhase
6,0,T1,t,b,False,1013,5,15160,testPhase
7,0,T0,t,b,False,951,5,15160,testPhase
8,0,A2,a,a,True,1686,5,15160,testPhase
9,0,T0,t,b,False,1134,5,15160,testPhase
10,0,T2,t,b,False,966,5,15160,testPhase
11,0,T2,t,b,False,1413,5,15160,testPhase
12,0,B0,b,b,True,860,5,15160,testPhase
13,0,T2,t,b,False,1070,5,15160,testPhase
14,0,T0,t,b,False,854,5,15160,testPhase
15,0,T2,t,b,False,886,5,15160,testPhase
16,0,T0,t,b,False,853,5,15160,testPhase
17,0,T1,t,b,False,781,5,15160,testPhase
18,0,T1,t,b,False,838,5,15160,testPhase
19,0,T2,t,b,False,758,5,15160,testPhase
20,0,T1,t,b,False,797,5,15160,testPhase
0,0,T2,t,a,False,10622,5,15187,testPhase
1,0,T2,t,a,False,2483,5,15187,testPhase
2,0,A1,a,a,True,1192,5,15187,testPhase
3,0,A0,a,a,True,926,5,15187,testPhase
4,0,B2,b,b,True,917,5,15187,testPhase
5,0,T0,t,a,False,2255,5,15187,testPhase
6,0,T1,t,a,False,901,5,15187,testPhase
7,0,A2,a,a,True,1348,5,15187,testPhase
8,0,T1,t,b,False,1068,5,15187,testPhase
9,0,T0,t,b,False,771,5,15187,testPhase
10,0,B1,b,b,True,770,5,15187,testPhase
11,0,T2,t,b,False,2848,5,15187,testPhase
12,0,T2,t,b,False,878,5,15187,testPhase
13,0,B0,b,b,True,1417,5,15187,testPhase
14,0,T2,t,b,False,796,5,15187,testPhase
15,0,T1,t,b,False,884,5,15187,testPhase
16,0,T0,t,b,False,976,5,15187,testPhase
17,0,T1,t,b,False,1291,5,15187,testPhase
18,0,T0,t,b,False,1138,5,15187,testPhase
19,0,T1,t,b,False,1076,5,15187,testPhase
20,0,T0,t,b,False,1142,5,15187,testPhase
0,0,T0,t,b,False,1430,5,15205,testPhase
1,0,T2,t,b,False,811,5,15205,testPhase
2,0,A2,a,b,False,696,5,15205,testPhase
3,0,T0,t,a,False,934,5,15205,testPhase
4,0,A1,a,a,True,851,5,15205,testPhase
5,0,B0,b,b,True,1041,5,15205,testPhase
6,0,B2,b,b,True,686,5,15205,testPhase
7,0,T2,t,a,False,1840,5,15205,testPhase
8,0,T1,t,a,False,1128,5,15205,testPhase
9,0,T0,t,b,False,1764,5,15205,testPhase
10,0,T1,t,b,False,692,5,15205,testPhase
11,0,T1,t,b,False,734,5,15205,testPhase
12,0,T2,t,b,False,638,5,15205,testPhase
13,0,B1,b,b,True,1167,5,15205,testPhase
14,0,T1,t,b,False,621,5,15205,testPhase
15,0,T2,t,b,False,568,5,15205,testPhase
16,0,T0,t,b,False,555,5,15205,testPhase
17,0,T0,t,b,False,782,5,15205,testPhase
18,0,T1,t,b,False,509,5,15205,testPhase
19,0,T2,t,b,False,470,5,15205,testPhase
20,0,A0,a,a,True,814,5,15205,testPhase
0,0,B0,b,b,True,1048,5,15210,testPhase
1,0,T2,t,b,False,666,5,15210,testPhase
2,0,A0,a,a,True,685,5,15210,testPhase
3,0,T0,t,b,False,550,5,15210,testPhase
4,0,T2,t,b,False,998,5,15210,testPhase
5,0,A2,a,b,False,880,5,15210,testPhase
6,0,T1,t,b,False,846,5,15210,testPhase
7,0,A1,a,a,True,627,5,15210,testPhase
8,0,T0,t,b,False,590,5,15210,testPhase
9,0,T1,t,b,False,990,5,15210,testPhase
10,0,T0,t,b,False,486,5,15210,testPhase
11,0,B2,b,b,True,445,5,15210,testPhase
12,0,B1,b,b,True,398,5,15210,testPhase
13,0,T1,t,b,False,366,5,15210,testPhase
14,0,T2,t,b,False,389,5,15210,testPhase
15,0,T1,t,b,False,365,5,15210,testPhase
16,0,T0,t,b,False,350,5,15210,testPhase
17,0,T0,t,b,False,318,5,15210,testPhase
18,0,T1,t,b,False,222,5,15210,testPhase
19,0,T2,t,b,False,389,5,15210,testPhase
20,0,T2,t,b,False,221,5,15210,testPhase
0,0,T1,t,a,False,1537,5,15215,testPhase
1,0,T2,t,a,False,3206,5,15215,testPhase
2,0,A0,a,a,True,913,5,15215,testPhase
3,0,T2,t,a,False,1038,5,15215,testPhase
4,0,T2,t,b,False,1445,5,15215,testPhase
5,0,B0,b,b,True,1064,5,15215,testPhase
6,0,T1,t,b,False,4622,5,15215,testPhase
7,0,T0,t,b,False,1182,5,15215,testPhase
8,0,T1,t,b,False,1382,5,15215,testPhase
9,0,T2,t,a,False,2350,5,15215,testPhase
10,0,A1,a,a,True,948,5,15215,testPhase
11,0,T1,t,a,False,1422,5,15215,testPhase
12,0,T2,t,a,False,737,5,15215,testPhase
13,0,T0,t,a,False,870,5,15215,testPhase
14,0,T0,t,b,False,1133,5,15215,testPhase
15,0,A2,a,a,True,823,5,15215,testPhase
16,0,B1,b,b,True,733,5,15215,testPhase
17,0,T0,t,a,False,1676,5,15215,testPhase
18,0,T0,t,a,False,997,5,15215,testPhase
19,0,T1,t,b,False,930,5,15215,testPhase
20,0,B2,b,b,True,950,5,15215,testPhase
0,0,B1,b,b,True,837,5,15226,testPhase
1,0,T0,t,b,False,940,5,15226,testPhase
2,0,B2,b,b,True,1006,5,15226,testPhase
3,0,T2,t,a,False,907,5,15226,testPhase
4,0,T0,t,a,False,875,5,15226,testPhase
5,0,T1,t,a,False,740,5,15226,testPhase
6,0,T0,t,a,False,642,5,15226,testPhase
7,0,A2,a,a,True,1230,5,15226,testPhase
8,0,B0,b,b,True,765,5,15226,testPhase
9,0,T1,t,a,False,1475,5,15226,testPhase
10,0,T0,t,a,False,931,5,15226,testPhase
11,0,T2,t,a,False,520,5,15226,testPhase
12,0,T1,t,a,False,534,5,15226,testPhase
13,0,T1,t,a,False,762,5,15226,testPhase
14,0,T2,t,a,False,640,5,15226,testPhase
15,0,T2,t,a,False,796,5,15226,testPhase
16,0,A0,a,a,True,1053,5,15226,testPhase
17,0,A1,a,a,True,938,5,15226,testPhase
18,0,T2,t,a,False,1142,5,15226,testPhase
19,0,T0,t,a,False,617,5,15226,testPhase
20,0,T1,t,a,False,554,5,15226,testPhase
0,0,T0,t,a,False,1749,5,15231,testPhase
1,0,T1,t,a,False,1862,5,15231,testPhase
2,0,A2,a,a,True,1036,5,15231,testPhase
3,0,T2,t,a,False,1071,5,15231,testPhase
4,0,B1,b,b,True,1936,5,15231,testPhase
5,0,T2,t,a,False,1264,5,15231,testPhase
6,0,T0,t,a,False,894,5,15231,testPhase
7,0,T2,t,a,False,968,5,15231,testPhase
8,0,T0,t,a,False,820,5,15231,testPhase
9,0,B0,b,b,True,1180,5,15231,testPhase
10,0,T2,t,a,False,1091,5,15231,testPhase
11,0,T0,t,a,False,990,5,15231,testPhase
12,0,T0,t,a,False,1227,5,15231,testPhase
13,0,T1,t,a,False,893,5,15231,testPhase
14,0,T1,t,a,False,834,5,15231,testPhase
15,0,T1,t,b,False,1908,5,15231,testPhase
16,0,A1,a,b,False,2654,5,15231,testPhase
17,0,B2,b,b,True,985,5,15231,testPhase
18,0,A0,a,a,True,1296,5,15231,testPhase
19,0,T2,t,b,False,1226,5,15231,testPhase
20,0,T1,t,a,False,1059,5,15231,testPhase
0,0,T2,t,a,False,3086,5,15283,testPhase
1,0,T1,t,a,False,1407,5,15283,testPhase
2,0,T2,t,a,False,1529,5,15283,testPhase
3,0,A2,a,a,True,1742,5,15283,testPhase
4,0,T0,t,a,False,1937,5,15283,testPhase
5,0,T1,t,a,False,1018,5,15283,testPhase
6,0,T0,t,a,False,1350,5,15283,testPhase
7,0,T1,t,a,False,1046,5,15283,testPhase
8,0,B1,b,b,True,1676,5,15283,testPhase
9,0,T0,t,a,False,1856,5,15283,testPhase
10,0,T0,t,a,False,850,5,15283,testPhase
11,0,B2,b,b,True,1245,5,15283,testPhase
12,0,T2,t,a,False,1069,5,15283,testPhase
13,0,B0,b,a,False,1553,5,15283,testPhase
14,0,T1,t,a,False,1365,5,15283,testPhase
15,0,A1,a,a,True,2267,5,15283,testPhase
16,0,A0,a,a,True,814,5,15283,testPhase
17,0,T2,t,a,False,2180,5,15283,testPhase
18,0,T0,t,a,False,949,5,15283,testPhase
19,0,T2,t,a,False,478,5,15283,testPhase
20,0,T1,t,a,False,582,5,15283,testPhase
0,0,T0,t,b,False,2320,5,15288,testPhase
1,0,B1,b,b,True,736,5,15288,testPhase
2,0,B2,b,b,True,622,5,15288,testPhase
3,0,T1,t,b,False,991,5,15288,testPhase
4,0,A2,a,a,True,864,5,15288,testPhase
5,0,T2,t,b,False,1456,5,15288,testPhase
6,0,A0,a,a,True,904,5,15288,testPhase
7,0,T1,t,b,False,896,5,15288,testPhase
8,0,B0,b,b,True,1104,5,15288,testPhase
9,0,T0,t,b,False,1000,5,15288,testPhase
10,0,T2,t,b,False,662,5,15288,testPhase
11,0,T1,t,b,False,456,5,15288,testPhase
12,0,T2,t,b,False,467,5,15288,testPhase
13,0,T1,t,b,False,472,5,15288,testPhase
14,0,T2,t,b,False,437,5,15288,testPhase
15,0,T0,t,b,False,465,5,15288,testPhase
16,0,T2,t,b,False,430,5,15288,testPhase
17,0,A1,a,a,True,813,5,15288,testPhase
18,0,T1,t,b,False,879,5,15288,testPhase
19,0,T0,t,b,False,1598,5,15288,testPhase
20,0,T0,t,b,False,512,5,15288,testPhase
0,0,T1,t,b,False,2288,5,15293,testPhase
1,0,T1,t,b,False,1542,5,15293,testPhase
2,0,T0,t,b,False,933,5,15293,testPhase
3,0,T2,t,b,False,937,5,15293,testPhase
4,0,T0,t,b,False,978,5,15293,testPhase
5,0,B0,b,b,True,1275,5,15293,testPhase
6,0,A2,a,a,True,1435,5,15293,testPhase
7,0,T2,t,b,False,992,5,15293,testPhase
8,0,T0,t,b,False,760,5,15293,testPhase
9,0,T1,t,b,False,934,5,15293,testPhase
10,0,T0,t,b,False,677,5,15293,testPhase
11,0,A0,a,a,True,1008,5,15293,testPhase
12,0,A1,a,a,True,880,5,15293,testPhase
13,0,T2,t,b,False,897,5,15293,testPhase
14,0,T1,t,b,False,741,5,15293,testPhase
15,0,B1,b,b,True,628,5,15293,testPhase
16,0,B2,b,b,True,673,5,15293,testPhase
17,0,T0,t,b,False,770,5,15293,testPhase
18,0,T1,t,b,False,703,5,15293,testPhase
19,0,T2,t,b,False,824,5,15293,testPhase
20,0,T2,t,b,False,663,5,15293,testPhase
0,0,T1,t,a,False,1259,5,15298,testPhase
1,0,T1,t,a,False,823,5,15298,testPhase
2,0,T2,t,a,False,1320,5,15298,testPhase
3,0,T0,t,b,False,2689,5,15298,testPhase
4,0,T0,t,a,False,6262,5,15298,testPhase
5,0,T1,t,b,False,889,5,15298,testPhase
6,0,A1,a,a,True,1725,5,15298,testPhase
7,0,T1,t,b,False,1417,5,15298,testPhase
8,0,T0,t,b,False,916,5,15298,testPhase
9,0,T0,t,b,False,720,5,15298,testPhase
10,0,A0,a,a,True,1138,5,15298,testPhase
11,0,B0,b,b,True,3797,5,15298,testPhase
12,0,B2,b,b,True,672,5,15298,testPhase
13,0,T2,t,a,False,807,5,15298,testPhase
14,0,T2,t,a,False,644,5,15298,testPhase
15,0,B1,b,b,True,820,5,15298,testPhase
16,0,A2,a,a,True,730,5,15298,testPhase
17,0,T1,t,a,False,658,5,15298,testPhase
18,0,T2,t,a,False,688,5,15298,testPhase
19,0,T2,t,a,False,607,5,15298,testPhase
20,0,T0,t,a,False,585,5,15298,testPhase
0,0,T2,t,b,False,3933,5,15303,testPhase
1,0,T0,t,b,False,1207,5,15303,testPhase
2,0,B0,b,b,True,1236,5,15303,testPhase
3,0,T2,t,b,False,1082,5,15303,testPhase
4,0,B2,b,b,True,997,5,15303,testPhase
5,0,A2,a,a,True,1352,5,15303,testPhase
6,0,T0,t,b,False,1078,5,15303,testPhase
7,0,A1,a,a,True,1053,5,15303,testPhase
8,0,A0,a,a,True,1289,5,15303,testPhase
9,0,T1,t,b,False,1317,5,15303,testPhase
10,0,T0,t,b,False,1484,5,15303,testPhase
11,0,T1,t,b,False,787,5,15303,testPhase
12,0,T1,t,b,False,897,5,15303,testPhase
13,0,T2,t,b,False,1085,5,15303,testPhase
14,0,T1,t,b,False,715,5,15303,testPhase
15,0,T2,t,b,False,720,5,15303,testPhase
16,0,T2,t,b,False,835,5,15303,testPhase
17,0,T0,t,b,False,813,5,15303,testPhase
18,0,T0,t,b,False,691,5,15303,testPhase
19,0,T1,t,b,False,656,5,15303,testPhase
20,0,B1,b,b,True,808,5,15303,testPhase
0,0,T0,t,a,False,4655,5,15308,testPhase
1,0,A0,a,a,True,1266,5,15308,testPhase
2,0,T2,t,a,False,2945,5,15308,testPhase
3,0,A2,a,a,True,826,5,15308,testPhase
4,0,B0,b,b,True,986,5,15308,testPhase
5,0,T0,t,b,False,1519,5,15308,testPhase
6,0,T1,t,a,False,2662,5,15308,testPhase
7,0,T2,t,a,False,1247,5,15308,testPhase
8,0,T0,t,b,False,2040,5,15308,testPhase
9,0,T0,t,b,False,781,5,15308,testPhase
10,0,T1,t,b,False,1074,5,15308,testPhase
11,0,T2,t,a,False,3235,5,15308,testPhase
12,0,T2,t,a,False,829,5,15308,testPhase
13,0,B1,b,b,True,840,5,15308,testPhase
14,0,B2,b,b,True,857,5,15308,testPhase
15,0,T1,t,a,False,858,5,15308,testPhase
16,0,T2,t,a,False,707,5,15308,testPhase
17,0,T1,t,a,False,840,5,15308,testPhase
18,0,T1,t,a,False,678,5,15308,testPhase
19,0,A1,a,a,True,1172,5,15308,testPhase
20,0,T0,t,a,False,1134,5,15308,testPhase
0,0,T0,t,a,False,5236,5,15480,testPhase
1,0,T1,t,a,False,1024,5,15480,testPhase
2,0,T2,t,a,False,878,5,15480,testPhase
3,0,T2,t,a,False,586,5,15480,testPhase
4,0,T2,t,a,False,508,5,15480,testPhase
5,0,A0,a,a,True,799,5,15480,testPhase
6,0,T0,t,a,False,586,5,15480,testPhase
7,0,A2,a,a,True,514,5,15480,testPhase
8,0,T1,t,a,False,486,5,15480,testPhase
9,0,T0,t,a,False,759,5,15480,testPhase
10,0,T2,t,a,False,445,5,15480,testPhase
11,0,T2,t,a,False,374,5,15480,testPhase
12,0,B2,b,b,True,958,5,15480,testPhase
13,0,T1,t,a,False,918,5,15480,testPhase
14,0,B1,b,b,True,805,5,15480,testPhase
15,0,A1,a,a,True,968,5,15480,testPhase
16,0,T1,t,b,False,1481,5,15480,testPhase
17,0,T1,t,a,False,838,5,15480,testPhase
18,0,T0,t,a,False,470,5,15480,testPhase
19,0,T0,t,a,False,373,5,15480,testPhase
20,0,B0,b,b,True,1118,5,15480,testPhase
0,0,A0,a,a,True,2341,5,15483,testPhase
1,0,T1,t,a,False,976,5,15483,testPhase
2,0,T2,t,a,False,596,5,15483,testPhase
3,0,T1,t,a,False,438,5,15483,testPhase
4,0,T2,t,a,False,446,5,15483,testPhase
5,0,B2,b,b,True,966,5,15483,testPhase
6,0,T2,t,a,False,766,5,15483,testPhase
7,0,B0,b,b,True,1253,5,15483,testPhase
8,0,T0,t,a,False,758,5,15483,testPhase
9,0,T2,t,a,False,872,5,15483,testPhase
10,0,T1,t,a,False,438,5,15483,testPhase
11,0,T0,t,a,False,630,5,15483,testPhase
12,0,T1,t,a,False,926,5,15483,testPhase
13,0,A1,a,a,True,1524,5,15483,testPhase
14,0,B1,b,b,True,1185,5,15483,testPhase
15,0,T1,t,b,False,406,5,15483,testPhase
16,0,T0,t,a,False,719,5,15483,testPhase
17,0,T0,t,a,False,504,5,15483,testPhase
18,0,T0,t,a,False,486,5,15483,testPhase
19,0,A2,a,a,True,500,5,15483,testPhase
20,0,T2,t,a,False,528,5,15483,testPhase
0,0,B0,b,b,True,1355,5,15486,testPhase
1,0,T2,t,a,False,2975,5,15486,testPhase
2,0,T2,t,a,False,1326,5,15486,testPhase
3,0,T1,t,a,False,979,5,15486,testPhase
4,0,B1,b,b,True,1131,5,15486,testPhase
5,0,A2,a,a,True,863,5,15486,testPhase
6,0,T0,t,a,False,1247,5,15486,testPhase
7,0,T2,t,a,False,736,5,15486,testPhase
8,0,B2,b,b,True,1133,5,15486,testPhase
9,0,T0,t,b,False,3227,5,15486,testPhase
10,0,T1,t,b,False,837,5,15486,testPhase
11,0,T0,t,b,False,705,5,15486,testPhase
12,0,T2,t,b,False,1529,5,15486,testPhase
13,0,T0,t,b,False,717,5,15486,testPhase
14,0,T0,t,b,False,551,5,15486,testPhase
15,0,T1,t,b,False,477,5,15486,testPhase
16,0,T1,t,b,False,1421,5,15486,testPhase
17,0,A1,a,a,True,2502,5,15486,testPhase
18,0,T1,t,b,False,1004,5,15486,testPhase
19,0,T2,t,b,False,707,5,15486,testPhase
20,0,A0,a,a,True,814,5,15486,testPhase
0,0,T2,t,b,False,2308,5,15489,testPhase
1,0,T0,t,b,False,1061,5,15489,testPhase
2,0,T1,t,b,False,1436,5,15489,testPhase
3,0,A2,a,a,True,1103,5,15489,testPhase
4,0,T1,t,b,False,1088,5,15489,testPhase
5,0,T0,t,b,False,933,5,15489,testPhase
6,0,T2,t,b,False,1373,5,15489,testPhase
7,0,T1,t,b,False,1719,5,15489,testPhase
8,0,T2,t,b,False,992,5,15489,testPhase
9,0,B2,b,b,True,1035,5,15489,testPhase
10,0,B1,b,b,True,782,5,15489,testPhase
11,0,T1,t,a,False,3156,5,15489,testPhase
12,0,T2,t,a,False,940,5,15489,testPhase
13,0,T1,t,a,False,1001,5,15489,testPhase
14,0,T2,t,b,False,2335,5,15489,testPhase
15,0,B0,b,b,True,926,5,15489,testPhase
16,0,T0,t,b,False,1008,5,15489,testPhase
17,0,A1,a,a,True,1273,5,15489,testPhase
18,0,T0,t,b,False,1269,5,15489,testPhase
19,0,A0,a,a,True,1523,5,15489,testPhase
20,0,T0,t,b,False,824,5,15489,testPhase
0,0,T0,t,a,False,2688,5,15492,testPhase
1,0,T2,t,a,False,1415,5,15492,testPhase
2,0,T2,t,b,False,2383,5,15492,testPhase
3,0,T2,t,b,False,1065,5,15492,testPhase
4,0,A0,a,a,True,1138,5,15492,testPhase
5,0,B0,b,b,True,2694,5,15492,testPhase
6,0,T0,t,a,False,1914,5,15492,testPhase
7,0,T1,t,a,False,1005,5,15492,testPhase
8,0,B2,b,b,True,1126,5,15492,testPhase
9,0,A2,a,a,True,1054,5,15492,testPhase
10,0,A1,a,a,True,1992,5,15492,testPhase
11,0,T0,t,a,False,1556,5,15492,testPhase
12,0,T1,t,a,False,824,5,15492,testPhase
13,0,T0,t,a,False,1143,5,15492,testPhase
14,0,B1,b,b,True,967,5,15492,testPhase
15,0,T1,t,a,False,1801,5,15492,testPhase
16,0,T2,t,a,False,809,5,15492,testPhase
17,0,T0,t,b,False,1545,5,15492,testPhase
18,0,T1,t,a,False,1412,5,15492,testPhase
19,0,T1,t,b,False,1035,5,15492,testPhase
20,0,T2,t,b,False,846,5,15492,testPhase
0,0,T0,t,a,False,1099,5,15507,testPhase
1,0,T1,t,a,False,906,5,15507,testPhase
2,0,T2,t,a,False,969,5,15507,testPhase
3,0,T2,t,a,False,780,5,15507,testPhase
4,0,T1,t,a,False,1266,5,15507,testPhase
5,0,B2,b,b,True,1240,5,15507,testPhase
6,0,T2,t,a,False,1011,5,15507,testPhase
7,0,T1,t,a,False,880,5,15507,testPhase
8,0,T2,t,a,False,974,5,15507,testPhase
9,0,T0,t,a,False,1055,5,15507,testPhase
10,0,T0,t,a,False,787,5,15507,testPhase
11,0,A0,a,a,True,894,5,15507,testPhase
12,0,T1,t,a,False,849,5,15507,testPhase
13,0,T0,t,a,False,1264,5,15507,testPhase
14,0,A2,a,a,True,911,5,15507,testPhase
15,0,A1,a,a,True,1891,5,15507,testPhase
16,0,B1,b,b,True,1112,5,15507,testPhase
17,0,T2,t,a,False,1020,5,15507,testPhase
18,0,T0,t,a,False,983,5,15507,testPhase
19,0,B0,b,b,True,1539,5,15507,testPhase
20,0,T1,t,a,False,912,5,15507,testPhase
0,0,T1,t,a,False,2170,5,15523,testPhase
1,0,A1,a,a,True,1837,5,15523,testPhase
2,0,T2,t,a,False,1358,5,15523,testPhase
3,0,T1,t,a,False,1152,5,15523,testPhase
4,0,B2,b,b,True,1340,5,15523,testPhase
5,0,T0,t,a,False,1968,5,15523,testPhase
6,0,T0,t,a,False,1585,5,15523,testPhase
7,0,T2,t,a,False,1220,5,15523,testPhase
8,0,T2,t,a,False,892,5,15523,testPhase
9,0,A2,a,a,True,1076,5,15523,testPhase
10,0,T0,t,a,False,1177,5,15523,testPhase
11,0,T0,t,a,False,949,5,15523,testPhase
12,0,B1,b,b,True,1278,5,15523,testPhase
13,0,T1,t,a,False,939,5,15523,testPhase
14,0,T1,t,a,False,1295,5,15523,testPhase
15,0,A0,a,a,True,1091,5,15523,testPhase
16,0,T2,t,a,False,1003,5,15523,testPhase
17,0,B0,b,b,True,1950,5,15523,testPhase
18,0,T0,t,a,False,1155,5,15523,testPhase
19,0,T2,t,a,False,915,5,15523,testPhase
20,0,T1,t,a,False,1098,5,15523,testPhase
0,0,T0,t,b,False,2569,5,15526,testPhase
1,0,T1,t,b,False,1149,5,15526,testPhase
2,0,T2,t,b,False,1106,5,15526,testPhase
3,0,A1,a,a,True,761,5,15526,testPhase
4,0,T2,t,b,False,1184,5,15526,testPhase
5,0,T1,t,b,False,862,5,15526,testPhase
6,0,B0,b,b,True,844,5,15526,testPhase
7,0,T2,t,b,False,760,5,15526,testPhase
8,0,A2,a,a,True,991,5,15526,testPhase
9,0,T0,t,b,False,871,5,15526,testPhase
10,0,A0,a,a,True,1000,5,15526,testPhase
11,0,T0,t,b,False,853,5,15526,testPhase
12,0,T0,t,b,False,2468,5,15526,testPhase
13,0,T1,t,b,False,839,5,15526,testPhase
14,0,T2,t,b,False,893,5,15526,testPhase
15,0,B1,b,b,True,937,5,15526,testPhase
16,0,T1,t,b,False,801,5,15526,testPhase
17,0,T2,t,b,False,825,5,15526,testPhase
18,0,B2,b,b,True,957,5,15526,testPhase
19,0,T1,t,b,False,1264,5,15526,testPhase
20,0,T0,t,b,False,1043,5,15526,testPhase
0,0,T0,t,a,False,2670,5,15529,testPhase
1,0,T2,t,b,False,1884,5,15529,testPhase
2,0,T2,t,a,False,3885,5,15529,testPhase
3,0,T1,t,a,False,1180,5,15529,testPhase
4,0,T1,t,b,False,3063,5,15529,testPhase
5,0,B2,b,b,True,1159,5,15529,testPhase
6,0,A0,a,a,True,2966,5,15529,testPhase
7,0,A2,a,a,True,2089,5,15529,testPhase
8,0,T1,t,a,False,2963,5,15529,testPhase
9,0,B1,b,b,True,1245,5,15529,testPhase
10,0,A1,a,a,True,1837,5,15529,testPhase
11,0,T1,t,a,False,1685,5,15529,testPhase
12,0,T2,t,a,False,2239,5,15529,testPhase
13,0,T0,t,b,False,939,5,15529,testPhase
14,0,T2,t,b,False,1089,5,15529,testPhase
15,0,T0,t,a,False,736,5,15529,testPhase
16,0,T0,t,a,False,1942,5,15529,testPhase
17,0,T1,t,a,False,1747,5,15529,testPhase
18,0,B0,b,b,True,6111,5,15529,testPhase
19,0,T2,t,b,False,1268,5,15529,testPhase
20,0,T0,t,a,False,762,5,15529,testPhase
0,0,A1,a,a,True,1773,5,15531,testPhase
1,0,B2,b,b,True,1020,5,15531,testPhase
2,0,T0,t,b,False,2252,5,15531,testPhase
3,0,B0,b,b,True,1209,5,15531,testPhase
4,0,T1,t,b,False,1556,5,15531,testPhase
5,0,T1,t,b,False,1065,5,15531,testPhase
6,0,T1,t,b,False,988,5,15531,testPhase
7,0,A0,a,a,True,951,5,15531,testPhase
8,0,A2,a,a,True,929,5,15531,testPhase
9,0,T2,t,b,False,1019,5,15531,testPhase
10,0,B1,b,b,True,1007,5,15531,testPhase
11,0,T2,t,b,False,1317,5,15531,testPhase
12,0,T1,t,b,False,1012,5,15531,testPhase
13,0,T0,t,b,False,931,5,15531,testPhase
14,0,T2,t,b,False,848,5,15531,testPhase
15,0,T2,t,b,False,744,5,15531,testPhase
16,0,T0,t,b,False,717,5,15531,testPhase
17,0,T2,t,b,False,754,5,15531,testPhase
18,0,T1,t,b,False,749,5,15531,testPhase
19,0,T0,t,b,False,688,5,15531,testPhase
20,0,T0,t,b,False,695,5,15531,testPhase
0,0,T0,t,a,False,8462,5,15535,testPhase
1,0,A2,a,a,True,976,5,15535,testPhase
2,0,T2,t,b,False,2551,5,15535,testPhase
3,0,B0,b,b,True,1417,5,15535,testPhase
4,0,T2,t,b,False,1109,5,15535,testPhase
5,0,B1,b,b,True,815,5,15535,testPhase
6,0,B2,b,b,True,776,5,15535,testPhase
7,0,T2,t,b,False,3085,5,15535,testPhase
8,0,T0,t,b,False,1543,5,15535,testPhase
9,0,T1,t,b,False,1719,5,15535,testPhase
10,0,A0,a,a,True,760,5,15535,testPhase
11,0,T2,t,b,False,1112,5,15535,testPhase
12,0,T0,t,b,False,1393,5,15535,testPhase
13,0,T2,t,b,False,744,5,15535,testPhase
14,0,T1,t,a,False,2648,5,15535,testPhase
15,0,T1,t,b,False,1832,5,15535,testPhase
16,0,T1,t,b,False,496,5,15535,testPhase
17,0,A1,a,a,True,1447,5,15535,testPhase
18,0,T0,t,b,False,938,5,15535,testPhase
19,0,T1,t,a,False,1280,5,15535,testPhase
20,0,T0,t,a,False,699,5,15535,testPhase
0,0,B0,b,b,True,2083,5,15545,testPhase
1,0,A2,a,a,True,1033,5,15545,testPhase
2,0,T1,t,b,False,782,5,15545,testPhase
3,0,T0,t,b,False,801,5,15545,testPhase
4,0,T2,t,b,False,685,5,15545,testPhase
5,0,T0,t,b,False,1117,5,15545,testPhase
6,0,T2,t,b,False,744,5,15545,testPhase
7,0,T2,t,b,False,529,5,15545,testPhase
8,0,T1,t,b,False,448,5,15545,testPhase
9,0,A0,a,a,True,836,5,15545,testPhase
10,0,B2,b,b,True,653,5,15545,testPhase
11,0,T2,t,b,False,870,5,15545,testPhase
12,0,T0,t,b,False,790,5,15545,testPhase
13,0,T1,t,b,False,638,5,15545,testPhase
14,0,T1,t,b,False,413,5,15545,testPhase
15,0,T0,t,b,False,367,5,15545,testPhase
16,0,T0,t,b,False,955,5,15545,testPhase
17,0,T1,t,b,False,472,5,15545,testPhase
18,0,B1,b,b,True,926,5,15545,testPhase
19,0,A1,a,a,True,646,5,15545,testPhase
20,0,T2,t,b,False,1423,5,15545,testPhase
0,0,T2,t,b,False,1764,5,15548,testPhase
1,0,T2,t,b,False,1013,5,15548,testPhase
2,0,A0,a,a,True,684,5,15548,testPhase
3,0,T2,t,b,False,1372,5,15548,testPhase
4,0,B1,b,b,True,710,5,15548,testPhase
5,0,T0,t,b,False,1321,5,15548,testPhase
6,0,T0,t,b,False,1330,5,15548,testPhase
7,0,B2,b,b,True,1444,5,15548,testPhase
8,0,T0,t,b,False,3254,5,15548,testPhase
9,0,T0,t,b,False,793,5,15548,testPhase
10,0,T2,t,b,False,864,5,15548,testPhase
11,0,T1,t,b,False,639,5,15548,testPhase
12,0,T1,t,b,False,722,5,15548,testPhase
13,0,A1,a,a,True,793,5,15548,testPhase
14,0,B0,b,b,True,1216,5,15548,testPhase
15,0,T1,t,a,False,1746,5,15548,testPhase
16,0,T0,t,a,False,855,5,15548,testPhase
17,0,T2,t,b,False,800,5,15548,testPhase
18,0,A2,a,a,True,1279,5,15548,testPhase
19,0,T1,t,b,False,574,5,15548,testPhase
20,0,T1,t,b,False,1059,5,15548,testPhase
0,0,T2,t,a,False,1547,5,15551,testPhase
1,0,T2,t,a,False,819,5,15551,testPhase
2,0,T2,t,a,False,693,5,15551,testPhase
3,0,T0,t,a,False,714,5,15551,testPhase
4,0,A0,a,a,True,1905,5,15551,testPhase
5,0,T0,t,a,False,1673,5,15551,testPhase
6,0,A2,a,a,True,580,5,15551,testPhase
7,0,B1,b,b,True,736,5,15551,testPhase
8,0,A1,a,b,False,479,5,15551,testPhase
9,0,T0,t,a,False,2181,5,15551,testPhase
10,0,T2,t,a,False,667,5,15551,testPhase
11,0,T0,t,a,False,465,5,15551,testPhase
12,0,B0,b,b,True,731,5,15551,testPhase
13,0,T1,t,a,False,807,5,15551,testPhase
14,0,T1,t,a,False,913,5,15551,testPhase
15,0,B2,b,b,True,1279,5,15551,testPhase
16,0,T1,t,a,False,786,5,15551,testPhase
17,0,T1,t,a,False,701,5,15551,testPhase
18,0,T1,t,a,False,661,5,15551,testPhase
19,0,T0,t,a,False,551,5,15551,testPhase
20,0,T2,t,a,False,495,5,15551,testPhase
0,0,T1,t,b,False,1484,5,15554,testPhase
1,0,T1,t,b,False,1119,5,15554,testPhase
2,0,B1,b,b,True,869,5,15554,testPhase
3,0,T1,t,b,False,856,5,15554,testPhase
4,0,T2,t,b,False,758,5,15554,testPhase
5,0,T0,t,b,False,943,5,15554,testPhase
6,0,T0,t,b,False,497,5,15554,testPhase
7,0,T0,t,b,False,414,5,15554,testPhase
8,0,T2,t,b,False,526,5,15554,testPhase
9,0,T2,t,b,False,549,5,15554,testPhase
10,0,T1,t,b,False,1176,5,15554,testPhase
11,0,T2,t,b,False,529,5,15554,testPhase
12,0,T0,t,b,False,488,5,15554,testPhase
13,0,A0,a,a,True,920,5,15554,testPhase
14,0,B0,b,b,True,899,5,15554,testPhase
15,0,T1,t,b,False,416,5,15554,testPhase
16,0,B2,b,b,True,651,5,15554,testPhase
17,0,A1,a,a,True,830,5,15554,testPhase
18,0,T2,t,b,False,1696,5,15554,testPhase
19,0,T0,t,b,False,493,5,15554,testPhase
20,0,A2,a,a,True,4050,5,15554,testPhase
0,0,B2,b,b,True,1177,5,15557,testPhase
1,0,A0,a,a,True,1242,5,15557,testPhase
2,0,T0,t,a,False,1359,5,15557,testPhase
3,0,T0,t,a,False,806,5,15557,testPhase
4,0,T2,t,a,False,777,5,15557,testPhase
5,0,A1,a,a,True,1718,5,15557,testPhase
6,0,T2,t,b,False,2813,5,15557,testPhase
7,0,T1,t,b,False,1350,5,15557,testPhase
8,0,T1,t,b,False,613,5,15557,testPhase
9,0,T2,t,b,False,701,5,15557,testPhase
10,0,T0,t,b,False,605,5,15557,testPhase
11,0,T1,t,b,False,438,5,15557,testPhase
12,0,T0,t,b,False,869,5,15557,testPhase
13,0,A2,a,a,True,805,5,15557,testPhase
14,0,T1,t,b,False,810,5,15557,testPhase
15,0,B1,b,b,True,1030,5,15557,testPhase
16,0,T2,t,b,False,902,5,15557,testPhase
17,0,T1,t,b,False,2206,5,15557,testPhase
18,0,T2,t,b,False,569,5,15557,testPhase
19,0,B0,b,b,True,1317,5,15557,testPhase
20,0,T0,t,a,False,11228,5,15557,testPhase
0,0,A0,a,a,True,909,5,15560,testPhase
1,0,B2,b,b,True,1135,5,15560,testPhase
2,0,T0,t,b,False,1038,5,15560,testPhase
3,0,T1,t,b,False,862,5,15560,testPhase
4,0,B0,b,b,True,1361,5,15560,testPhase
5,0,T2,t,b,False,1963,5,15560,testPhase
6,0,T2,t,b,False,986,5,15560,testPhase
7,0,T0,t,b,False,604,5,15560,testPhase
8,0,T0,t,b,False,2367,5,15560,testPhase
9,0,T1,t,b,False,973,5,15560,testPhase
10,0,A2,a,a,True,1133,5,15560,testPhase
11,0,T0,t,b,False,735,5,15560,testPhase
12,0,T2,t,b,False,756,5,15560,testPhase
13,0,T1,t,b,False,478,5,15560,testPhase
14,0,B1,b,b,True,924,5,15560,testPhase
15,0,A1,a,a,True,917,5,15560,testPhase
16,0,T2,t,b,False,949,5,15560,testPhase
17,0,T1,t,b,False,1069,5,15560,testPhase
18,0,T1,t,b,False,485,5,15560,testPhase
19,0,T0,t,b,False,576,5,15560,testPhase
20,0,T2,t,b,False,557,5,15560,testPhase
0,0,T2,t,b,False,2290,5,14921,testPhase
1,0,T0,t,b,False,1086,5,14921,testPhase
2,0,T1,t,a,False,1894,5,14921,testPhase
3,0,T2,t,a,False,1269,5,14921,testPhase
4,0,T0,t,a,False,478,5,14921,testPhase
5,0,B1,b,b,True,1934,5,14921,testPhase
6,0,T1,t,b,False,3694,5,14921,testPhase
7,0,T0,t,b,False,817,5,14921,testPhase
8,0,T0,t,a,False,898,5,14921,testPhase
9,0,B2,b,b,True,1002,5,14921,testPhase
10,0,T2,t,a,False,1130,5,14921,testPhase
11,0,B0,b,a,False,975,5,14921,testPhase
12,0,T1,t,a,False,658,5,14921,testPhase
13,0,T2,t,a,False,486,5,14921,testPhase
14,0,A0,a,a,True,726,5,14921,testPhase
15,0,T1,t,a,False,941,5,14921,testPhase
16,0,T0,t,a,False,817,5,14921,testPhase
17,0,T1,t,a,False,388,5,14921,testPhase
18,0,A1,a,a,True,2838,5,14921,testPhase
19,0,A2,a,a,True,754,5,14921,testPhase
20,0,T2,t,a,False,630,5,14921,testPhase
0,0,T2,t,a,False,1870,5,14926,testPhase
1,0,T1,t,a,False,1013,5,14926,testPhase
2,0,T0,t,a,False,1111,5,14926,testPhase
3,0,T1,t,a,False,884,5,14926,testPhase
4,0,T0,t,a,False,777,5,14926,testPhase
5,0,A0,a,a,True,1026,5,14926,testPhase
6,0,T2,t,a,False,878,5,14926,testPhase
7,0,A1,a,a,True,1770,5,14926,testPhase
8,0,T1,t,a,False,1218,5,14926,testPhase
9,0,A2,a,a,True,606,5,14926,testPhase
10,0,B0,b,b,True,1542,5,14926,testPhase
11,0,T1,t,b,False,889,5,14926,testPhase
12,0,T1,t,a,False,949,5,14926,testPhase
13,0,T0,t,a,False,972,5,14926,testPhase
14,0,B2,b,b,True,734,5,14926,testPhase
15,0,B1,b,b,True,726,5,14926,testPhase
16,0,T0,t,a,False,1017,5,14926,testPhase
17,0,T2,t,a,False,866,5,14926,testPhase
18,0,T2,t,a,False,551,5,14926,testPhase
19,0,T2,t,a,False,481,5,14926,testPhase
20,0,T0,t,a,False,469,5,14926,testPhase
0,0,T1,t,b,False,846,5,14931,testPhase
1,0,B1,b,b,True,685,5,14931,testPhase
2,0,T0,t,b,False,802,5,14931,testPhase
3,0,T1,t,b,False,686,5,14931,testPhase
4,0,T2,t,b,False,744,5,14931,testPhase
5,0,B0,b,b,True,1098,5,14931,testPhase
6,0,T1,t,b,False,763,5,14931,testPhase
7,0,B2,b,b,True,752,5,14931,testPhase
8,0,T1,t,b,False,639,5,14931,testPhase
9,0,T2,t,b,False,683,5,14931,testPhase
10,0,A1,a,a,True,762,5,14931,testPhase
11,0,T2,t,b,False,657,5,14931,testPhase
12,0,A2,a,a,True,944,5,14931,testPhase
13,0,T0,t,b,False,709,5,14931,testPhase
14,0,T0,t,b,False,628,5,14931,testPhase
15,0,T2,t,b,False,637,5,14931,testPhase
16,0,T0,t,b,False,625,5,14931,testPhase
17,0,A0,a,a,True,1244,5,14931,testPhase
18,0,T0,t,b,False,737,5,14931,testPhase
19,0,T2,t,b,False,597,5,14931,testPhase
20,0,T1,t,b,False,598,5,14931,testPhase
0,0,T1,t,a,False,1250,5,14936,testPhase
1,0,T2,t,a,False,855,5,14936,testPhase
2,0,T0,t,a,False,792,5,14936,testPhase
3,0,T2,t,a,False,826,5,14936,testPhase
4,0,B2,b,b,True,1234,5,14936,testPhase
5,0,T2,t,a,False,1020,5,14936,testPhase
6,0,T0,t,a,False,764,5,14936,testPhase
7,0,A1,a,a,True,2992,5,14936,testPhase
8,0,B1,b,b,True,878,5,14936,testPhase
9,0,T2,t,a,False,902,5,14936,testPhase
10,0,A2,a,a,True,782,5,14936,testPhase
11,0,T1,t,a,False,709,5,14936,testPhase
12,0,T1,t,a,False,677,5,14936,testPhase
13,0,A0,a,a,True,781,5,14936,testPhase
14,0,T0,t,a,False,1062,5,14936,testPhase
15,0,T0,t,a,False,1218,5,14936,testPhase
16,0,T1,t,a,False,818,5,14936,testPhase
17,0,T0,t,a,False,698,5,14936,testPhase
18,0,T1,t,a,False,735,5,14936,testPhase
19,0,T2,t,a,False,632,5,14936,testPhase
20,0,B0,b,b,True,2252,5,14936,testPhase
0,0,T1,t,b,False,7606,5,14941,testPhase
1,0,T0,t,b,False,982,5,14941,testPhase
2,0,T0,t,b,False,754,5,14941,testPhase
3,0,T2,t,b,False,759,5,14941,testPhase
4,0,A2,a,b,False,482,5,14941,testPhase
5,0,B1,b,b,True,1343,5,14941,testPhase
6,0,T1,t,b,False,948,5,14941,testPhase
7,0,T1,t,b,False,492,5,14941,testPhase
8,0,B0,b,b,True,525,5,14941,testPhase
9,0,A0,a,a,True,1101,5,14941,testPhase
10,0,T1,t,b,False,1286,5,14941,testPhase
11,0,T0,t,b,False,661,5,14941,testPhase
12,0,T2,t,b,False,581,5,14941,testPhase
13,0,T0,t,b,False,839,5,14941,testPhase
14,0,T1,t,b,False,612,5,14941,testPhase
15,0,T2,t,b,False,607,5,14941,testPhase
16,0,A1,a,a,True,1003,5,14941,testPhase
17,0,T2,t,b,False,941,5,14941,testPhase
18,0,T2,t,b,False,677,5,14941,testPhase
19,0,T0,t,b,False,551,5,14941,testPhase
20,0,B2,b,b,True,879,5,14941,testPhase
0,0,T2,t,a,False,2713,5,14946,testPhase
1,0,T0,t,a,False,1451,5,14946,testPhase
2,0,T2,t,a,False,1738,5,14946,testPhase
3,0,B0,b,a,False,1301,5,14946,testPhase
4,0,B1,b,b,True,1354,5,14946,testPhase
5,0,A2,a,a,True,1779,5,14946,testPhase
6,0,T1,t,b,False,2183,5,14946,testPhase
7,0,T1,t,b,False,1152,5,14946,testPhase
8,0,T0,t,b,False,1069,5,14946,testPhase
9,0,T1,t,b,False,1114,5,14946,testPhase
10,0,T2,t,b,False,1008,5,14946,testPhase
11,0,T2,t,b,False,1126,5,14946,testPhase
12,0,T1,t,b,False,1334,5,14946,testPhase
13,0,T0,t,b,False,1534,5,14946,testPhase
14,0,T0,t,b,False,949,5,14946,testPhase
15,0,A0,a,a,True,1054,5,14946,testPhase
16,0,T2,t,b,False,1094,5,14946,testPhase
17,0,A1,a,a,True,1633,5,14946,testPhase
18,0,B2,b,b,True,1106,5,14946,testPhase
19,0,T1,t,b,False,1979,5,14946,testPhase
20,0,T0,t,b,False,849,5,14946,testPhase
0,0,T2,t,b,False,1861,5,14951,testPhase
1,0,T0,t,b,False,830,5,14951,testPhase
2,0,T0,t,b,False,582,5,14951,testPhase
3,0,T1,t,b,False,398,5,14951,testPhase
4,0,T2,t,b,False,1301,5,14951,testPhase
5,0,A2,a,b,False,2589,5,14951,testPhase
6,0,B2,b,b,True,1062,5,14951,testPhase
7,0,T1,t,b,False,765,5,14951,testPhase
8,0,T2,t,b,False,469,5,14951,testPhase
9,0,T1,t,b,False,756,5,14951,testPhase
10,0,T2,t,b,False,669,5,14951,testPhase
11,0,T0,t,b,False,701,5,14951,testPhase
12,0,T0,t,a,False,925,5,14951,testPhase
13,0,B0,b,a,False,1709,5,14951,testPhase
14,0,A0,a,a,True,1031,5,14951,testPhase
15,0,T1,t,b,False,2669,5,14951,testPhase
16,0,A1,a,a,True,773,5,14951,testPhase
17,0,B1,b,b,True,742,5,14951,testPhase
18,0,T0,t,b,False,2288,5,14951,testPhase
19,0,T1,t,b,False,1029,5,14951,testPhase
20,0,T2,t,b,False,782,5,14951,testPhase
0,0,A0,a,a,True,1191,5,14971,testPhase
1,0,T2,t,a,False,898,5,14971,testPhase
2,0,T1,t,a,False,886,5,14971,testPhase
3,0,B2,b,b,True,891,5,14971,testPhase
4,0,B1,b,b,True,1765,5,14971,testPhase
5,0,T1,t,a,False,736,5,14971,testPhase
6,0,A1,a,a,True,822,5,14971,testPhase
7,0,T0,t,a,False,698,5,14971,testPhase
8,0,T2,t,a,False,828,5,14971,testPhase
9,0,T0,t,a,False,808,5,14971,testPhase
10,0,T2,t,a,False,677,5,14971,testPhase
11,0,T2,t,a,False,625,5,14971,testPhase
12,0,T1,t,b,False,566,5,14971,testPhase
13,0,T0,t,b,False,897,5,14971,testPhase
14,0,T0,t,b,False,537,5,14971,testPhase
15,0,A2,a,b,False,460,5,14971,testPhase
16,0,T0,t,b,False,1171,5,14971,testPhase
17,0,T1,t,a,False,1143,5,14971,testPhase
18,0,T2,t,b,False,437,5,14971,testPhase
19,0,T1,t,a,False,325,5,14971,testPhase
20,0,B0,b,b,True,357,5,14971,testPhase
0,0,T1,t,a,False,2450,5,14976,testPhase
1,0,A0,a,a,True,1116,5,14976,testPhase
2,0,T2,t,a,False,1937,5,14976,testPhase
3,0,T1,t,a,False,787,5,14976,testPhase
4,0,T0,t,a,False,1437,5,14976,testPhase
5,0,T1,t,a,False,1390,5,14976,testPhase
6,0,B0,b,b,True,1141,5,14976,testPhase
7,0,T2,t,a,False,999,5,14976,testPhase
8,0,T2,t,a,False,728,5,14976,testPhase
9,0,B1,b,b,True,1013,5,14976,testPhase
10,0,T0,t,a,False,961,5,14976,testPhase
11,0,T2,t,a,False,1086,5,14976,testPhase
12,0,T0,t,a,False,986,5,14976,testPhase
13,0,T0,t,a,False,1076,5,14976,testPhase
14,0,T1,t,a,False,756,5,14976,testPhase
15,0,B2,b,b,True,916,5,14976,testPhase
16,0,T2,t,a,False,1302,5,14976,testPhase
17,0,T1,t,a,False,622,5,14976,testPhase
18,0,A1,a,a,True,4934,5,14976,testPhase
19,0,A2,a,a,True,899,5,14976,testPhase
20,0,T0,t,a,False,773,5,14976,testPhase
0,0,T0,t,b,False,7959,5,14981,testPhase
1,0,T2,t,b,False,6635,5,14981,testPhase
2,0,T0,t,a,False,1591,5,14981,testPhase
3,0,T1,t,a,False,1450,5,14981,testPhase
4,0,B2,b,b,True,1254,5,14981,testPhase
5,0,T1,t,a,False,2822,5,14981,testPhase
6,0,B0,b,b,True,1428,5,14981,testPhase
7,0,A0,a,a,True,1205,5,14981,testPhase
8,0,T0,t,a,False,5638,5,14981,testPhase
9,0,T2,t,a,False,4825,5,14981,testPhase
10,0,A2,a,a,True,2820,5,14981,testPhase
11,0,T2,t,a,False,1010,5,14981,testPhase
12,0,T0,t,a,False,854,5,14981,testPhase
13,0,T0,t,a,False,482,5,14981,testPhase
14,0,T1,t,a,False,476,5,14981,testPhase
15,0,T1,t,a,False,939,5,14981,testPhase
16,0,A1,a,a,True,2189,5,14981,testPhase
17,0,B1,b,b,True,855,5,14981,testPhase
18,0,T1,t,a,False,2363,5,14981,testPhase
19,0,T2,t,a,False,883,5,14981,testPhase
20,0,T2,t,a,False,1044,5,14981,testPhase
0,0,T0,t,b,False,2008,5,14986,testPhase
1,0,T1,t,b,False,1757,5,14986,testPhase
2,0,T2,t,b,False,1841,5,14986,testPhase
3,0,T1,t,b,False,1399,5,14986,testPhase
4,0,T1,t,a,False,1489,5,14986,testPhase
5,0,T1,t,b,False,1291,5,14986,testPhase
6,0,B2,b,b,True,901,5,14986,testPhase
7,0,A2,a,a,True,2217,5,14986,testPhase
8,0,A1,a,a,True,694,5,14986,testPhase
9,0,B1,b,b,True,879,5,14986,testPhase
10,0,T0,t,b,False,1322,5,14986,testPhase
11,0,T0,t,b,False,953,5,14986,testPhase
12,0,T2,t,b,False,829,5,14986,testPhase
13,0,T2,t,b,False,1161,5,14986,testPhase
14,0,T2,t,b,False,714,5,14986,testPhase
15,0,T0,t,b,False,965,5,14986,testPhase
16,0,A0,a,a,True,1650,5,14986,testPhase
17,0,B0,b,b,True,1630,5,14986,testPhase
18,0,T2,t,b,False,1133,5,14986,testPhase
19,0,T0,t,b,False,1117,5,14986,testPhase
20,0,T1,t,b,False,1059,5,14986,testPhase
0,0,T0,t,a,False,3789,5,15033,testPhase
1,0,A0,a,a,True,917,5,15033,testPhase
2,0,T2,t,a,False,1261,5,15033,testPhase
3,0,T0,t,a,False,1187,5,15033,testPhase
4,0,T0,t,a,False,1189,5,15033,testPhase
5,0,T0,t,a,False,1214,5,15033,testPhase
6,0,B1,b,b,True,1125,5,15033,testPhase
7,0,T2,t,a,False,1064,5,15033,testPhase
8,0,T0,t,a,False,1062,5,15033,testPhase
9,0,A2,a,a,True,1141,5,15033,testPhase
10,0,T1,t,a,False,1149,5,15033,testPhase
11,0,B0,b,b,True,1625,5,15033,testPhase
12,0,T2,t,a,False,957,5,15033,testPhase
13,0,T2,t,a,False,1295,5,15033,testPhase
14,0,B2,b,b,True,1087,5,15033,testPhase
15,0,T1,t,a,False,1218,5,15033,testPhase
16,0,T1,t,a,False,1135,5,15033,testPhase
17,0,A1,a,a,True,1373,5,15033,testPhase
18,0,T1,t,a,False,1053,5,15033,testPhase
19,0,T2,t,a,False,1001,5,15033,testPhase
20,0,T1,t,a,False,973,5,15033,testPhase
